PE IR       SUBTECH     SPECTRUM    ASCII       PEDS        4.00        
   -1
18c6 ether.ASC
22/05/18
12:12:38.00
22/05/18
12:12:38.00
Administrator
Sample 168 By Administrator Date Wednesday, May 18 2022
400.000000
#HDR
-1
-1
#GR
cm-1
%T
1.0
0.0
4000.000000
-1.000000
3601
8
96.984834
46.930105
#DATA
4000.000000	96.192440
3999.000000	96.197706
3998.000000	96.206293
3997.000000	96.216471
3996.000000	96.225411
3995.000000	96.197727
3994.000000	96.200106
3993.000000	96.201008
3992.000000	96.200675
3991.000000	96.199609
3990.000000	96.198496
3989.000000	96.197422
3988.000000	96.195905
3987.000000	96.193395
3986.000000	96.189845
3985.000000	96.185899
3984.000000	96.182760
3983.000000	96.181855
3982.000000	96.184064
3981.000000	96.188938
3980.000000	96.194952
3979.000000	96.200544
3978.000000	96.204854
3977.000000	96.207603
3976.000000	96.208471
3975.000000	96.207270
3974.000000	96.204642
3973.000000	96.202245
3972.000000	96.201881
3971.000000	96.203938
3970.000000	96.207365
3969.000000	96.210812
3968.000000	96.213616
3967.000000	96.216016
3966.000000	96.218624
3965.000000	96.221843
3964.000000	96.225853
3963.000000	96.230568
3962.000000	96.235031
3961.000000	96.237719
3960.000000	96.237555
3959.000000	96.234514
3958.000000	96.229838
3957.000000	96.224956
3956.000000	96.220185
3955.000000	96.214994
3954.000000	96.209253
3953.000000	96.204507
3952.000000	96.203324
3951.000000	96.207206
3950.000000	96.215265
3949.000000	96.224083
3948.000000	96.229691
3947.000000	96.230303
3946.000000	96.226964
3945.000000	96.222533
3944.000000	96.219882
3943.000000	96.220425
3942.000000	96.223098
3941.000000	96.225657
3940.000000	96.226725
3939.000000	96.226184
3938.000000	96.225474
3937.000000	96.226615
3936.000000	96.230584
3935.000000	96.236904
3934.000000	96.243224
3933.000000	96.246975
3932.000000	96.246744
3931.000000	96.243565
3930.000000	96.240339
3929.000000	96.238106
3928.000000	96.236717
3927.000000	96.236645
3926.000000	96.239144
3925.000000	96.245107
3924.000000	96.253417
3923.000000	96.261679
3922.000000	96.269048
3921.000000	96.276167
3920.000000	96.283605
3919.000000	96.290369
3918.000000	96.293940
3917.000000	96.293414
3916.000000	96.290888
3915.000000	96.289227
3914.000000	96.289241
3913.000000	96.289812
3912.000000	96.290003
3911.000000	96.289222
3910.000000	96.287612
3909.000000	96.285353
3908.000000	96.282344
3907.000000	96.280257
3906.000000	96.283071
3905.000000	96.294030
3904.000000	96.310734
3903.000000	96.325060
3902.000000	96.330737
3901.000000	96.328392
3900.000000	96.322652
3899.000000	96.318454
3898.000000	96.317327
3897.000000	96.317211
3896.000000	96.316003
3895.000000	96.312369
3894.000000	96.307158
3893.000000	96.303801
3892.000000	96.305304
3891.000000	96.311143
3890.000000	96.318973
3889.000000	96.326166
3888.000000	96.331069
3887.000000	96.333029
3886.000000	96.332728
3885.000000	96.330454
3884.000000	96.326985
3883.000000	96.323249
3882.000000	96.321267
3881.000000	96.323053
3880.000000	96.326893
3879.000000	96.328956
3878.000000	96.327079
3877.000000	96.320866
3876.000000	96.312862
3875.000000	96.308638
3874.000000	96.311834
3873.000000	96.321425
3872.000000	96.332835
3871.000000	96.341030
3870.000000	96.343015
3869.000000	96.339232
3868.000000	96.333146
3867.000000	96.328243
3866.000000	96.326299
3865.000000	96.329223
3864.000000	96.337434
3863.000000	96.347611
3862.000000	96.356490
3861.000000	96.361722
3860.000000	96.362488
3859.000000	96.358529
3858.000000	96.349386
3857.000000	96.334706
3856.000000	96.317870
3855.000000	96.309618
3854.000000	96.320773
3853.000000	96.337924
3852.000000	96.347099
3851.000000	96.351243
3850.000000	96.354819
3849.000000	96.356485
3848.000000	96.354833
3847.000000	96.350351
3846.000000	96.345337
3845.000000	96.342454
3844.000000	96.342682
3843.000000	96.344709
3842.000000	96.346851
3841.000000	96.347604
3840.000000	96.346918
3839.000000	96.346350
3838.000000	96.345283
3837.000000	96.342796
3836.000000	96.339668
3835.000000	96.337932
3834.000000	96.339002
3833.000000	96.342199
3832.000000	96.346168
3831.000000	96.349927
3830.000000	96.352506
3829.000000	96.352959
3828.000000	96.351939
3827.000000	96.351280
3826.000000	96.352323
3825.000000	96.354620
3824.000000	96.355823
3823.000000	96.354729
3822.000000	96.354457
3821.000000	96.356283
3820.000000	96.358798
3819.000000	96.360732
3818.000000	96.362560
3817.000000	96.364866
3816.000000	96.366967
3815.000000	96.367511
3814.000000	96.366420
3813.000000	96.364987
3812.000000	96.364101
3811.000000	96.364340
3810.000000	96.365779
3809.000000	96.368433
3808.000000	96.372092
3807.000000	96.375522
3806.000000	96.377937
3805.000000	96.379538
3804.000000	96.379573
3803.000000	96.377220
3802.000000	96.372804
3801.000000	96.367962
3800.000000	96.365248
3799.000000	96.365780
3798.000000	96.367943
3797.000000	96.368913
3796.000000	96.366648
3795.000000	96.361494
3794.000000	96.356046
3793.000000	96.352582
3792.000000	96.351724
3791.000000	96.352375
3790.000000	96.353392
3789.000000	96.354033
3788.000000	96.354187
3787.000000	96.354356
3786.000000	96.355281
3785.000000	96.357182
3784.000000	96.359573
3783.000000	96.361304
3782.000000	96.361029
3781.000000	96.358666
3780.000000	96.355602
3779.000000	96.353010
3778.000000	96.350846
3777.000000	96.349411
3776.000000	96.349112
3775.000000	96.350627
3774.000000	96.354282
3773.000000	96.359759
3772.000000	96.366082
3771.000000	96.371078
3770.000000	96.372786
3769.000000	96.370688
3768.000000	96.366573
3767.000000	96.363341
3766.000000	96.362581
3765.000000	96.364090
3764.000000	96.366885
3763.000000	96.369849
3762.000000	96.372454
3761.000000	96.375574
3760.000000	96.381147
3759.000000	96.389058
3758.000000	96.397041
3757.000000	96.403672
3756.000000	96.408737
3755.000000	96.413525
3754.000000	96.421269
3753.000000	96.435175
3752.000000	96.453832
3751.000000	96.467486
3750.000000	96.467247
3749.000000	96.457295
3748.000000	96.445134
3747.000000	96.432466
3746.000000	96.417788
3745.000000	96.403517
3744.000000	96.394148
3743.000000	96.395302
3742.000000	96.407962
3741.000000	96.425934
3740.000000	96.442060
3739.000000	96.452001
3738.000000	96.455757
3737.000000	96.456911
3736.000000	96.457985
3735.000000	96.458976
3734.000000	96.458135
3733.000000	96.451378
3732.000000	96.437050
3731.000000	96.419773
3730.000000	96.405760
3729.000000	96.398777
3728.000000	96.398058
3727.000000	96.400079
3726.000000	96.401336
3725.000000	96.400338
3724.000000	96.397100
3723.000000	96.393324
3722.000000	96.391445
3721.000000	96.392200
3720.000000	96.395109
3719.000000	96.399563
3718.000000	96.404414
3717.000000	96.408861
3716.000000	96.411941
3715.000000	96.412872
3714.000000	96.410785
3713.000000	96.405268
3712.000000	96.398647
3711.000000	96.393097
3710.000000	96.390314
3709.000000	96.390721
3708.000000	96.392239
3707.000000	96.393213
3706.000000	96.392732
3705.000000	96.390807
3704.000000	96.387916
3703.000000	96.383839
3702.000000	96.377795
3701.000000	96.368824
3700.000000	96.358048
3699.000000	96.348118
3698.000000	96.340048
3697.000000	96.333637
3696.000000	96.328732
3695.000000	96.325041
3694.000000	96.321934
3693.000000	96.318774
3692.000000	96.317645
3691.000000	96.322636
3690.000000	96.334032
3689.000000	96.342614
3688.000000	96.341060
3687.000000	96.333581
3686.000000	96.327621
3685.000000	96.325997
3684.000000	96.328275
3683.000000	96.332658
3682.000000	96.336528
3681.000000	96.337865
3680.000000	96.335282
3679.000000	96.328438
3678.000000	96.318282
3677.000000	96.307005
3676.000000	96.298189
3675.000000	96.292802
3674.000000	96.293244
3673.000000	96.298838
3672.000000	96.306027
3671.000000	96.310856
3670.000000	96.311362
3669.000000	96.306974
3668.000000	96.300734
3667.000000	96.296795
3666.000000	96.297107
3665.000000	96.300580
3664.000000	96.304879
3663.000000	96.307673
3662.000000	96.308132
3661.000000	96.307721
3660.000000	96.308115
3659.000000	96.311324
3658.000000	96.318794
3657.000000	96.329765
3656.000000	96.340240
3655.000000	96.347251
3654.000000	96.352695
3653.000000	96.359220
3652.000000	96.368510
3651.000000	96.380590
3650.000000	96.390813
3649.000000	96.390207
3648.000000	96.378578
3647.000000	96.366612
3646.000000	96.362879
3645.000000	96.367453
3644.000000	96.375545
3643.000000	96.383193
3642.000000	96.389494
3641.000000	96.395258
3640.000000	96.399679
3639.000000	96.401227
3638.000000	96.400379
3637.000000	96.400050
3636.000000	96.402951
3635.000000	96.409000
3634.000000	96.416479
3633.000000	96.423751
3632.000000	96.429998
3631.000000	96.435586
3630.000000	96.441414
3629.000000	96.444212
3628.000000	96.440123
3627.000000	96.432475
3626.000000	96.426369
3625.000000	96.422894
3624.000000	96.421217
3623.000000	96.420846
3622.000000	96.422144
3621.000000	96.425298
3620.000000	96.429929
3619.000000	96.433745
3618.000000	96.434451
3617.000000	96.433004
3616.000000	96.431755
3615.000000	96.431522
3614.000000	96.432251
3613.000000	96.433309
3612.000000	96.433328
3611.000000	96.431475
3610.000000	96.427438
3609.000000	96.422059
3608.000000	96.418051
3607.000000	96.416840
3606.000000	96.417211
3605.000000	96.416889
3604.000000	96.414791
3603.000000	96.412487
3602.000000	96.411641
3601.000000	96.411205
3600.000000	96.409196
3599.000000	96.405948
3598.000000	96.403106
3597.000000	96.402398
3596.000000	96.403471
3595.000000	96.404697
3594.000000	96.405149
3593.000000	96.404781
3592.000000	96.403631
3591.000000	96.401811
3590.000000	96.399650
3589.000000	96.397504
3588.000000	96.394913
3587.000000	96.391068
3586.000000	96.387023
3585.000000	96.384091
3584.000000	96.382303
3583.000000	96.381281
3582.000000	96.380551
3581.000000	96.379306
3580.000000	96.376461
3579.000000	96.371860
3578.000000	96.366967
3577.000000	96.363744
3576.000000	96.363301
3575.000000	96.364843
3574.000000	96.367152
3573.000000	96.369726
3572.000000	96.372633
3571.000000	96.376360
3570.000000	96.381810
3569.000000	96.388732
3568.000000	96.393639
3567.000000	96.391163
3566.000000	96.381187
3565.000000	96.369453
3564.000000	96.360667
3563.000000	96.355311
3562.000000	96.352467
3561.000000	96.351137
3560.000000	96.350295
3559.000000	96.349003
3558.000000	96.347025
3557.000000	96.344967
3556.000000	96.343722
3555.000000	96.343610
3554.000000	96.344580
3553.000000	96.346659
3552.000000	96.349636
3551.000000	96.352779
3550.000000	96.355870
3549.000000	96.358878
3548.000000	96.361604
3547.000000	96.362836
3546.000000	96.361550
3545.000000	96.358330
3544.000000	96.354926
3543.000000	96.351768
3542.000000	96.348164
3541.000000	96.343792
3540.000000	96.339416
3539.000000	96.336369
3538.000000	96.334993
3537.000000	96.334588
3536.000000	96.333681
3535.000000	96.331716
3534.000000	96.329508
3533.000000	96.328496
3532.000000	96.329305
3531.000000	96.331249
3530.000000	96.333581
3529.000000	96.336337
3528.000000	96.339973
3527.000000	96.344372
3526.000000	96.348611
3525.000000	96.351322
3524.000000	96.351542
3523.000000	96.349302
3522.000000	96.345723
3521.000000	96.342065
3520.000000	96.338935
3519.000000	96.336871
3518.000000	96.336388
3517.000000	96.337428
3516.000000	96.338788
3515.000000	96.338931
3514.000000	96.337537
3513.000000	96.335977
3512.000000	96.336049
3511.000000	96.338526
3510.000000	96.342603
3509.000000	96.346677
3508.000000	96.349634
3507.000000	96.351588
3506.000000	96.353470
3505.000000	96.356153
3504.000000	96.359608
3503.000000	96.362859
3502.000000	96.365217
3501.000000	96.366689
3500.000000	96.367385
3499.000000	96.367254
3498.000000	96.366186
3497.000000	96.364240
3496.000000	96.361935
3495.000000	96.360596
3494.000000	96.361667
3493.000000	96.365336
3492.000000	96.370114
3491.000000	96.374252
3490.000000	96.377397
3489.000000	96.380129
3488.000000	96.382583
3487.000000	96.384140
3486.000000	96.384237
3485.000000	96.383059
3484.000000	96.381285
3483.000000	96.379856
3482.000000	96.379637
3481.000000	96.380917
3480.000000	96.383321
3479.000000	96.386350
3478.000000	96.389960
3477.000000	96.394250
3476.000000	96.399135
3475.000000	96.404497
3474.000000	96.410262
3473.000000	96.415990
3472.000000	96.420402
3471.000000	96.422043
3470.000000	96.420742
3469.000000	96.418084
3468.000000	96.416522
3467.000000	96.417933
3466.000000	96.422560
3465.000000	96.429050
3464.000000	96.435551
3463.000000	96.441123
3462.000000	96.445929
3461.000000	96.450198
3460.000000	96.453484
3459.000000	96.455343
3458.000000	96.456282
3457.000000	96.457622
3456.000000	96.459799
3455.000000	96.461809
3454.000000	96.462200
3453.000000	96.460696
3452.000000	96.458565
3451.000000	96.457488
3450.000000	96.458572
3449.000000	96.461901
3448.000000	96.466370
3447.000000	96.469827
3446.000000	96.470323
3445.000000	96.467643
3444.000000	96.463343
3443.000000	96.459645
3442.000000	96.458186
3441.000000	96.459431
3440.000000	96.462664
3439.000000	96.466194
3438.000000	96.467987
3437.000000	96.466852
3436.000000	96.463119
3435.000000	96.458717
3434.000000	96.455996
3433.000000	96.456219
3432.000000	96.458919
3431.000000	96.462653
3430.000000	96.466498
3429.000000	96.470177
3428.000000	96.473065
3427.000000	96.474079
3426.000000	96.473068
3425.000000	96.471459
3424.000000	96.470818
3423.000000	96.471308
3422.000000	96.472124
3421.000000	96.473071
3420.000000	96.474776
3419.000000	96.477598
3418.000000	96.481091
3417.000000	96.484393
3416.000000	96.486858
3415.000000	96.488398
3414.000000	96.489559
3413.000000	96.491017
3412.000000	96.492826
3411.000000	96.494420
3410.000000	96.495520
3409.000000	96.496414
3408.000000	96.497218
3407.000000	96.497500
3406.000000	96.496936
3405.000000	96.495831
3404.000000	96.494485
3403.000000	96.492863
3402.000000	96.491238
3401.000000	96.490670
3400.000000	96.492217
3399.000000	96.495836
3398.000000	96.500297
3397.000000	96.503856
3396.000000	96.505191
3395.000000	96.504434
3394.000000	96.503576
3393.000000	96.505148
3392.000000	96.509847
3391.000000	96.515781
3390.000000	96.520321
3389.000000	96.522416
3388.000000	96.522944
3387.000000	96.523411
3386.000000	96.524600
3385.000000	96.526346
3384.000000	96.528084
3383.000000	96.529626
3382.000000	96.531343
3381.000000	96.533655
3380.000000	96.536462
3379.000000	96.539106
3378.000000	96.540831
3377.000000	96.541063
3376.000000	96.539591
3375.000000	96.536754
3374.000000	96.533345
3373.000000	96.530144
3372.000000	96.527717
3371.000000	96.526553
3370.000000	96.526807
3369.000000	96.527761
3368.000000	96.528345
3367.000000	96.528764
3366.000000	96.530842
3365.000000	96.535836
3364.000000	96.542368
3363.000000	96.547593
3362.000000	96.550281
3361.000000	96.551663
3360.000000	96.553308
3359.000000	96.555251
3358.000000	96.556536
3357.000000	96.556599
3356.000000	96.555567
3355.000000	96.553824
3354.000000	96.551952
3353.000000	96.550680
3352.000000	96.550532
3351.000000	96.551665
3350.000000	96.554143
3349.000000	96.557798
3348.000000	96.561561
3347.000000	96.563829
3346.000000	96.563915
3345.000000	96.562836
3344.000000	96.562177
3343.000000	96.562490
3342.000000	96.563205
3341.000000	96.563672
3340.000000	96.563803
3339.000000	96.563816
3338.000000	96.563770
3337.000000	96.563359
3336.000000	96.561987
3335.000000	96.559357
3334.000000	96.556287
3333.000000	96.554506
3332.000000	96.555126
3331.000000	96.557404
3330.000000	96.559518
3329.000000	96.560499
3328.000000	96.560892
3327.000000	96.561660
3326.000000	96.562889
3325.000000	96.563866
3324.000000	96.564032
3323.000000	96.563427
3322.000000	96.562253
3321.000000	96.560353
3320.000000	96.557458
3319.000000	96.553954
3318.000000	96.550880
3317.000000	96.548872
3316.000000	96.547411
3315.000000	96.545563
3314.000000	96.543391
3313.000000	96.542046
3312.000000	96.542197
3311.000000	96.542823
3310.000000	96.541941
3309.000000	96.538432
3308.000000	96.533051
3307.000000	96.527842
3306.000000	96.524615
3305.000000	96.523748
3304.000000	96.524197
3303.000000	96.524763
3302.000000	96.525354
3301.000000	96.526908
3300.000000	96.529923
3299.000000	96.533383
3298.000000	96.535364
3297.000000	96.534621
3296.000000	96.531501
3295.000000	96.527488
3294.000000	96.524167
3293.000000	96.522428
3292.000000	96.522251
3291.000000	96.522997
3290.000000	96.523857
3289.000000	96.524301
3288.000000	96.524375
3287.000000	96.524640
3286.000000	96.525637
3285.000000	96.527194
3284.000000	96.528595
3283.000000	96.529574
3282.000000	96.530875
3281.000000	96.533395
3280.000000	96.536881
3279.000000	96.539973
3278.000000	96.541374
3277.000000	96.540591
3276.000000	96.537901
3275.000000	96.534321
3274.000000	96.531676
3273.000000	96.531777
3272.000000	96.534821
3271.000000	96.538908
3270.000000	96.541496
3269.000000	96.541341
3268.000000	96.539105
3267.000000	96.536423
3266.000000	96.534709
3265.000000	96.534480
3264.000000	96.535505
3263.000000	96.537224
3262.000000	96.539133
3261.000000	96.540884
3260.000000	96.542313
3259.000000	96.543575
3258.000000	96.544973
3257.000000	96.546593
3256.000000	96.548293
3255.000000	96.550172
3254.000000	96.552509
3253.000000	96.555054
3252.000000	96.556623
3251.000000	96.555955
3250.000000	96.552962
3249.000000	96.548883
3248.000000	96.545532
3247.000000	96.544621
3246.000000	96.547254
3245.000000	96.553278
3244.000000	96.561124
3243.000000	96.568736
3242.000000	96.574869
3241.000000	96.579444
3240.000000	96.582908
3239.000000	96.585498
3238.000000	96.586912
3237.000000	96.586516
3236.000000	96.584210
3235.000000	96.581451
3234.000000	96.580694
3233.000000	96.583176
3232.000000	96.587516
3231.000000	96.591037
3230.000000	96.592513
3229.000000	96.592897
3228.000000	96.593637
3227.000000	96.595228
3226.000000	96.597412
3225.000000	96.599921
3224.000000	96.602467
3223.000000	96.604383
3222.000000	96.604910
3221.000000	96.603868
3220.000000	96.602035
3219.000000	96.600793
3218.000000	96.601315
3217.000000	96.603741
3216.000000	96.607120
3215.000000	96.610313
3214.000000	96.613007
3213.000000	96.615824
3212.000000	96.619374
3211.000000	96.623242
3210.000000	96.625935
3209.000000	96.625878
3208.000000	96.622698
3207.000000	96.617783
3206.000000	96.613626
3205.000000	96.612306
3204.000000	96.614430
3203.000000	96.619064
3202.000000	96.624504
3201.000000	96.629123
3200.000000	96.631978
3199.000000	96.632981
3198.000000	96.632476
3197.000000	96.630621
3196.000000	96.627375
3195.000000	96.623263
3194.000000	96.619616
3193.000000	96.617680
3192.000000	96.617492
3191.000000	96.617843
3190.000000	96.617283
3189.000000	96.614850
3188.000000	96.610388
3187.000000	96.604704
3186.000000	96.599718
3185.000000	96.597703
3184.000000	96.599616
3183.000000	96.604001
3182.000000	96.607814
3181.000000	96.608807
3180.000000	96.607249
3179.000000	96.605305
3178.000000	96.604831
3177.000000	96.606005
3176.000000	96.607908
3175.000000	96.609850
3174.000000	96.611546
3173.000000	96.612420
3172.000000	96.611560
3171.000000	96.608601
3170.000000	96.604348
3169.000000	96.600258
3168.000000	96.597668
3167.000000	96.597327
3166.000000	96.599175
3165.000000	96.602136
3164.000000	96.604501
3163.000000	96.605067
3162.000000	96.603962
3161.000000	96.602357
3160.000000	96.601405
3159.000000	96.601462
3158.000000	96.601951
3157.000000	96.601737
3156.000000	96.599922
3155.000000	96.596834
3154.000000	96.594182
3153.000000	96.593743
3152.000000	96.595729
3151.000000	96.598769
3150.000000	96.601557
3149.000000	96.603961
3148.000000	96.606170
3147.000000	96.607328
3146.000000	96.605778
3145.000000	96.600820
3144.000000	96.593729
3143.000000	96.586834
3142.000000	96.581742
3141.000000	96.578749
3140.000000	96.577644
3139.000000	96.578446
3138.000000	96.581011
3137.000000	96.584355
3136.000000	96.587053
3135.000000	96.588402
3134.000000	96.588729
3133.000000	96.588640
3132.000000	96.588463
3131.000000	96.588522
3130.000000	96.589361
3129.000000	96.591285
3128.000000	96.593878
3127.000000	96.596239
3126.000000	96.597751
3125.000000	96.598361
3124.000000	96.598218
3123.000000	96.597470
3122.000000	96.596561
3121.000000	96.596431
3120.000000	96.597867
3119.000000	96.600710
3118.000000	96.603962
3117.000000	96.606756
3116.000000	96.609006
3115.000000	96.611022
3114.000000	96.612666
3113.000000	96.613255
3112.000000	96.612211
3111.000000	96.609779
3110.000000	96.607171
3109.000000	96.606021
3108.000000	96.607258
3107.000000	96.610174
3106.000000	96.612993
3105.000000	96.614461
3104.000000	96.614685
3103.000000	96.614242
3102.000000	96.613046
3101.000000	96.610571
3100.000000	96.607056
3099.000000	96.603990
3098.000000	96.603184
3097.000000	96.605315
3096.000000	96.609296
3095.000000	96.613019
3094.000000	96.614819
3093.000000	96.614373
3092.000000	96.612337
3091.000000	96.609389
3090.000000	96.605725
3089.000000	96.601366
3088.000000	96.596705
3087.000000	96.592609
3086.000000	96.590078
3085.000000	96.589591
3084.000000	96.590632
3083.000000	96.591850
3082.000000	96.591912
3081.000000	96.590377
3080.000000	96.587807
3079.000000	96.585151
3078.000000	96.583046
3077.000000	96.581687
3076.000000	96.580972
3075.000000	96.580628
3074.000000	96.580212
3073.000000	96.579111
3072.000000	96.576776
3071.000000	96.573172
3070.000000	96.569232
3069.000000	96.566565
3068.000000	96.566167
3067.000000	96.567294
3066.000000	96.567977
3065.000000	96.566846
3064.000000	96.564379
3063.000000	96.562288
3062.000000	96.561952
3061.000000	96.563523
3060.000000	96.566184
3059.000000	96.568927
3058.000000	96.570973
3057.000000	96.571936
3056.000000	96.571960
3055.000000	96.571749
3054.000000	96.572152
3053.000000	96.573374
3052.000000	96.574751
3051.000000	96.575253
3050.000000	96.574302
3049.000000	96.572105
3048.000000	96.569427
3047.000000	96.567073
3046.000000	96.565210
3045.000000	96.563018
3044.000000	96.559628
3043.000000	96.555749
3042.000000	96.553918
3041.000000	96.556268
3040.000000	96.562030
3039.000000	96.567867
3038.000000	96.570635
3037.000000	96.569438
3036.000000	96.565295
3035.000000	96.559699
3034.000000	96.553933
3033.000000	96.549097
3032.000000	96.545998
3031.000000	96.544688
3030.000000	96.544185
3029.000000	96.542795
3028.000000	96.538985
3027.000000	96.532331
3026.000000	96.523874
3025.000000	96.515377
3024.000000	96.507921
3023.000000	96.501095
3022.000000	96.493663
3021.000000	96.484816
3020.000000	96.474586
3019.000000	96.463190
3018.000000	96.450567
3017.000000	96.436888
3016.000000	96.423315
3015.000000	96.411668
3014.000000	96.402878
3013.000000	96.395858
3012.000000	96.388326
3011.000000	96.378874
3010.000000	96.367887
3009.000000	96.356309
3008.000000	96.344008
3007.000000	96.329825
3006.000000	96.312872
3005.000000	96.293230
3004.000000	96.271284
3003.000000	96.246890
3002.000000	96.219500
3001.000000	96.188728
3000.000000	96.154595
2999.000000	96.117308
2998.000000	96.077069
2997.000000	96.034162
2996.000000	95.988696
2995.000000	95.939742
2994.000000	95.884622
2993.000000	95.820116
2992.000000	95.745986
2991.000000	95.667591
2990.000000	95.594102
2989.000000	95.533147
2988.000000	95.487103
2987.000000	95.454012
2986.000000	95.430710
2985.000000	95.414315
2984.000000	95.401993
2983.000000	95.391229
2982.000000	95.380230
2981.000000	95.367318
2980.000000	95.350177
2979.000000	95.327055
2978.000000	95.298762
2977.000000	95.268319
2976.000000	95.238568
2975.000000	95.211140
2974.000000	95.187617
2973.000000	95.169934
2972.000000	95.158491
2971.000000	95.150676
2970.000000	95.142111
2969.000000	95.129054
2968.000000	95.108906
2967.000000	95.078821
2966.000000	95.034675
2965.000000	94.971414
2964.000000	94.884788
2963.000000	94.772796
2962.000000	94.636137
2961.000000	94.477183
2960.000000	94.297627
2959.000000	94.096724
2958.000000	93.869577
2957.000000	93.606079
2956.000000	93.292200
2955.000000	92.915280
2954.000000	92.473419
2953.000000	91.982715
2952.000000	91.477627
2951.000000	91.001653
2950.000000	90.593813
2949.000000	90.277456
2948.000000	90.058578
2947.000000	89.934028
2946.000000	89.900819
2945.000000	89.958842
2944.000000	90.104246
2943.000000	90.322824
2942.000000	90.589582
2941.000000	90.874266
2940.000000	91.149172
2939.000000	91.395113
2938.000000	91.604419
2937.000000	91.778655
2936.000000	91.923935
2935.000000	92.048084
2934.000000	92.160658
2933.000000	92.271768
2932.000000	92.386993
2931.000000	92.503087
2930.000000	92.609137
2929.000000	92.692199
2928.000000	92.741985
2927.000000	92.751786
2926.000000	92.718154
2925.000000	92.640719
2924.000000	92.521695
2923.000000	92.364724
2922.000000	92.173525
2921.000000	91.951788
2920.000000	91.703164
2919.000000	91.431188
2918.000000	91.139166
2917.000000	90.830084
2916.000000	90.506774
2915.000000	90.171584
2914.000000	89.825348
2913.000000	89.465780
2912.000000	89.086403
2911.000000	88.678617
2910.000000	88.235870
2909.000000	87.756162
2908.000000	87.240619
2907.000000	86.689613
2906.000000	86.100979
2905.000000	85.472614
2904.000000	84.809074
2903.000000	84.128205
2902.000000	83.460383
2901.000000	82.840263
2900.000000	82.293091
2899.000000	81.827824
2898.000000	81.440471
2897.000000	81.122499
2896.000000	80.868544
2895.000000	80.681205
2894.000000	80.573694
2893.000000	80.565922
2892.000000	80.675718
2891.000000	80.909649
2890.000000	81.259400
2889.000000	81.701785
2888.000000	82.200103
2887.000000	82.708400
2886.000000	83.176534
2885.000000	83.556906
2884.000000	83.808983
2883.000000	83.904480
2882.000000	83.833609
2881.000000	83.609715
2880.000000	83.269301
2879.000000	82.866068
2878.000000	82.461044
2877.000000	82.109732
2876.000000	81.853596
2875.000000	81.716549
2874.000000	81.706147
2873.000000	81.814136
2872.000000	82.015522
2871.000000	82.271865
2870.000000	82.539738
2869.000000	82.779335
2868.000000	82.958321
2867.000000	83.054352
2866.000000	83.057981
2865.000000	82.975711
2864.000000	82.829519
2863.000000	82.652132
2862.000000	82.479521
2861.000000	82.342414
2860.000000	82.258035
2859.000000	82.226160
2858.000000	82.232705
2857.000000	82.258563
2856.000000	82.289535
2855.000000	82.321962
2854.000000	82.360873
2853.000000	82.410943
2852.000000	82.467213
2851.000000	82.512375
2850.000000	82.522590
2849.000000	82.477768
2848.000000	82.371132
2847.000000	82.215385
2846.000000	82.044036
2845.000000	81.905715
2844.000000	81.853143
2843.000000	81.933002
2842.000000	82.177018
2841.000000	82.593967
2840.000000	83.164226
2839.000000	83.841810
2838.000000	84.566060
2837.000000	85.278317
2836.000000	85.934907
2835.000000	86.512338
2834.000000	87.005159
2833.000000	87.417810
2832.000000	87.756935
2831.000000	88.027535
2830.000000	88.233096
2829.000000	88.378046
2828.000000	88.470280
2827.000000	88.522856
2826.000000	88.554269
2825.000000	88.585142
2824.000000	88.631963
2823.000000	88.702712
2822.000000	88.796296
2821.000000	88.904516
2820.000000	89.014226
2819.000000	89.109633
2818.000000	89.175444
2817.000000	89.199671
2816.000000	89.175951
2815.000000	89.106422
2814.000000	89.005123
2813.000000	88.898928
2812.000000	88.822522
2811.000000	88.808278
2810.000000	88.876616
2809.000000	89.030893
2808.000000	89.258343
2807.000000	89.535989
2806.000000	89.837419
2805.000000	90.137967
2804.000000	90.418184
2803.000000	90.665743
2802.000000	90.875656
2801.000000	91.048781
2800.000000	91.189430
2799.000000	91.304010
2798.000000	91.399661
2797.000000	91.481108
2796.000000	91.547893
2795.000000	91.595230
2794.000000	91.618605
2793.000000	91.619200
2792.000000	91.606304
2791.000000	91.595388
2790.000000	91.602699
2789.000000	91.637567
2788.000000	91.696896
2787.000000	91.766775
2786.000000	91.830614
2785.000000	91.877989
2784.000000	91.908761
2783.000000	91.932395
2782.000000	91.964623
2781.000000	92.021938
2780.000000	92.114533
2779.000000	92.241515
2778.000000	92.391765
2777.000000	92.549562
2776.000000	92.700697
2775.000000	92.835429
2774.000000	92.948594
2773.000000	93.038969
2772.000000	93.109317
2771.000000	93.166727
2770.000000	93.220782
2769.000000	93.278770
2768.000000	93.341395
2767.000000	93.403214
2766.000000	93.457434
2765.000000	93.500344
2764.000000	93.531800
2763.000000	93.553544
2762.000000	93.568311
2761.000000	93.579444
2760.000000	93.589835
2759.000000	93.601078
2758.000000	93.614304
2757.000000	93.631216
2756.000000	93.652840
2755.000000	93.677104
2754.000000	93.698286
2753.000000	93.709211
2752.000000	93.703265
2751.000000	93.674389
2750.000000	93.617009
2749.000000	93.527848
2748.000000	93.409655
2747.000000	93.273975
2746.000000	93.139238
2745.000000	93.024099
2744.000000	92.940016
2743.000000	92.888312
2742.000000	92.863386
2741.000000	92.858163
2740.000000	92.867209
2739.000000	92.887627
2738.000000	92.918984
2737.000000	92.961785
2736.000000	93.014733
2735.000000	93.072841
2734.000000	93.129227
2733.000000	93.179492
2732.000000	93.224120
2731.000000	93.266626
2730.000000	93.309210
2729.000000	93.349022
2728.000000	93.377563
2727.000000	93.384510
2726.000000	93.364745
2725.000000	93.324375
2724.000000	93.281043
2723.000000	93.257300
2722.000000	93.270904
2721.000000	93.327863
2720.000000	93.421253
2719.000000	93.535760
2718.000000	93.655011
2717.000000	93.766849
2716.000000	93.864386
2715.000000	93.944247
2714.000000	94.005028
2713.000000	94.047252
2712.000000	94.073117
2711.000000	94.084406
2710.000000	94.080584
2709.000000	94.059794
2708.000000	94.022110
2707.000000	93.972792
2706.000000	93.923016
2705.000000	93.887516
2704.000000	93.880369
2703.000000	93.910450
2702.000000	93.977984
2701.000000	94.074307
2700.000000	94.185355
2699.000000	94.296902
2698.000000	94.398689
2697.000000	94.485219
2696.000000	94.554552
2695.000000	94.607399
2694.000000	94.646563
2693.000000	94.675590
2692.000000	94.697280
2691.000000	94.713495
2690.000000	94.726435
2689.000000	94.739737
2688.000000	94.757551
2687.000000	94.782530
2686.000000	94.814608
2685.000000	94.851280
2684.000000	94.889137
2683.000000	94.925866
2682.000000	94.961206
2681.000000	94.995818
2680.000000	95.029305
2679.000000	95.059982
2678.000000	95.086660
2677.000000	95.109858
2676.000000	95.130563
2675.000000	95.148294
2674.000000	95.161277
2673.000000	95.168114
2672.000000	95.168748
2671.000000	95.164121
2670.000000	95.155540
2669.000000	95.144531
2668.000000	95.132754
2667.000000	95.122019
2666.000000	95.114696
2665.000000	95.113726
2664.000000	95.121438
2663.000000	95.138215
2662.000000	95.162284
2661.000000	95.190309
2660.000000	95.218084
2659.000000	95.241639
2658.000000	95.259126
2657.000000	95.271824
2656.000000	95.282480
2655.000000	95.292521
2654.000000	95.301363
2653.000000	95.308141
2652.000000	95.313151
2651.000000	95.317617
2650.000000	95.322878
2649.000000	95.329944
2648.000000	95.338936
2647.000000	95.348582
2646.000000	95.357042
2645.000000	95.363702
2644.000000	95.369762
2643.000000	95.376839
2642.000000	95.385436
2641.000000	95.394774
2640.000000	95.403281
2639.000000	95.409024
2638.000000	95.410518
2637.000000	95.407861
2636.000000	95.402963
2635.000000	95.398272
2634.000000	95.395244
2633.000000	95.393757
2632.000000	95.392474
2631.000000	95.390064
2630.000000	95.386916
2629.000000	95.385640
2628.000000	95.388972
2627.000000	95.397119
2626.000000	95.407907
2625.000000	95.419569
2624.000000	95.432249
2623.000000	95.446296
2622.000000	95.460309
2621.000000	95.471763
2620.000000	95.479084
2619.000000	95.482659
2618.000000	95.484349
2617.000000	95.486387
2616.000000	95.489996
2615.000000	95.494508
2614.000000	95.498262
2613.000000	95.500673
2612.000000	95.502603
2611.000000	95.504436
2610.000000	95.504979
2609.000000	95.503179
2608.000000	95.500201
2607.000000	95.498857
2606.000000	95.501332
2605.000000	95.507992
2604.000000	95.517583
2603.000000	95.527567
2602.000000	95.534811
2601.000000	95.537405
2600.000000	95.536288
2599.000000	95.534580
2598.000000	95.534996
2597.000000	95.537653
2596.000000	95.540011
2595.000000	95.539079
2594.000000	95.534629
2593.000000	95.530579
2592.000000	95.532096
2591.000000	95.540426
2590.000000	95.551387
2589.000000	95.559839
2588.000000	95.564978
2587.000000	95.570379
2586.000000	95.579602
2585.000000	95.593031
2584.000000	95.608580
2583.000000	95.623975
2582.000000	95.638106
2581.000000	95.651099
2580.000000	95.663438
2579.000000	95.674704
2578.000000	95.683517
2577.000000	95.689394
2576.000000	95.694238
2575.000000	95.700835
2574.000000	95.709755
2573.000000	95.718676
2572.000000	95.725034
2571.000000	95.728512
2570.000000	95.730696
2569.000000	95.733114
2568.000000	95.736217
2567.000000	95.739806
2566.000000	95.743719
2565.000000	95.748066
2564.000000	95.752943
2563.000000	95.757946
2562.000000	95.762160
2561.000000	95.765035
2560.000000	95.767193
2559.000000	95.769663
2558.000000	95.771990
2557.000000	95.771876
2556.000000	95.767587
2555.000000	95.760584
2554.000000	95.754666
2553.000000	95.751941
2552.000000	95.750381
2551.000000	95.746356
2550.000000	95.739434
2549.000000	95.733685
2548.000000	95.733889
2547.000000	95.741155
2546.000000	95.752581
2545.000000	95.764171
2544.000000	95.773452
2543.000000	95.780119
2542.000000	95.785371
2541.000000	95.790673
2540.000000	95.796373
2539.000000	95.801496
2538.000000	95.805168
2537.000000	95.807708
2536.000000	95.809700
2535.000000	95.810816
2534.000000	95.810670
2533.000000	95.810227
2532.000000	95.810904
2531.000000	95.812343
2530.000000	95.812483
2529.000000	95.809957
2528.000000	95.805199
2527.000000	95.799343
2526.000000	95.793538
2525.000000	95.789311
2524.000000	95.787531
2523.000000	95.786266
2522.000000	95.781683
2521.000000	95.772546
2520.000000	95.762557
2519.000000	95.756599
2518.000000	95.755630
2517.000000	95.756654
2516.000000	95.756995
2515.000000	95.756917
2514.000000	95.758140
2513.000000	95.761495
2512.000000	95.766394
2511.000000	95.771719
2510.000000	95.776677
2509.000000	95.781063
2508.000000	95.785062
2507.000000	95.788914
2506.000000	95.792981
2505.000000	95.797941
2504.000000	95.804202
2503.000000	95.810783
2502.000000	95.815399
2501.000000	95.816332
2500.000000	95.814042
2499.000000	95.810717
2498.000000	95.808619
2497.000000	95.809043
2496.000000	95.812179
2495.000000	95.817347
2494.000000	95.823550
2493.000000	95.830183
2492.000000	95.837003
2491.000000	95.843314
2490.000000	95.847902
2489.000000	95.850334
2488.000000	95.852005
2487.000000	95.855272
2486.000000	95.861420
2485.000000	95.869591
2484.000000	95.877502
2483.000000	95.883085
2482.000000	95.885696
2481.000000	95.885980
2480.000000	95.884702
2479.000000	95.882122
2478.000000	95.878624
2477.000000	95.875119
2476.000000	95.871900
2475.000000	95.867683
2474.000000	95.861304
2473.000000	95.854481
2472.000000	95.851374
2471.000000	95.854674
2470.000000	95.863146
2469.000000	95.873282
2468.000000	95.882388
2467.000000	95.889649
2466.000000	95.895327
2465.000000	95.899995
2464.000000	95.904073
2463.000000	95.907635
2462.000000	95.910972
2461.000000	95.915125
2460.000000	95.920699
2459.000000	95.926112
2458.000000	95.928616
2457.000000	95.927758
2456.000000	95.926404
2455.000000	95.927402
2454.000000	95.930445
2453.000000	95.933395
2452.000000	95.935478
2451.000000	95.937741
2450.000000	95.941328
2449.000000	95.946826
2448.000000	95.954531
2447.000000	95.963514
2446.000000	95.970706
2445.000000	95.972576
2444.000000	95.968062
2443.000000	95.959083
2442.000000	95.948546
2441.000000	95.939073
2440.000000	95.933044
2439.000000	95.931827
2438.000000	95.934314
2437.000000	95.937295
2436.000000	95.937926
2435.000000	95.935435
2434.000000	95.930587
2433.000000	95.924639
2432.000000	95.919334
2431.000000	95.917019
2430.000000	95.919864
2429.000000	95.928632
2428.000000	95.941739
2427.000000	95.955234
2426.000000	95.964529
2425.000000	95.967622
2424.000000	95.966934
2423.000000	95.966910
2422.000000	95.969225
2421.000000	95.971084
2420.000000	95.968867
2419.000000	95.962664
2418.000000	95.956389
2417.000000	95.953842
2416.000000	95.955723
2415.000000	95.960405
2414.000000	95.966155
2413.000000	95.971589
2412.000000	95.974918
2411.000000	95.974613
2410.000000	95.971358
2409.000000	95.968211
2408.000000	95.967794
2407.000000	95.969699
2406.000000	95.971425
2405.000000	95.971445
2404.000000	95.970411
2403.000000	95.969694
2402.000000	95.969752
2401.000000	95.970066
2400.000000	95.969887
2399.000000	95.968844
2398.000000	95.967298
2397.000000	95.965970
2396.000000	95.964729
2395.000000	95.962330
2394.000000	95.958283
2393.000000	95.954510
2392.000000	95.953656
2391.000000	95.955729
2390.000000	95.958120
2389.000000	95.959297
2388.000000	95.960972
2387.000000	95.965848
2386.000000	95.974292
2385.000000	95.984407
2384.000000	95.994016
2383.000000	96.001512
2382.000000	96.005917
2381.000000	96.007416
2380.000000	96.008028
2379.000000	96.010202
2378.000000	96.014646
2377.000000	96.019961
2376.000000	96.023861
2375.000000	96.024622
2374.000000	96.022239
2373.000000	96.019170
2372.000000	96.018861
2371.000000	96.022713
2370.000000	96.028722
2369.000000	96.033612
2368.000000	96.035819
2367.000000	96.035855
2366.000000	96.035319
2365.000000	96.035163
2364.000000	96.034666
2363.000000	96.033362
2362.000000	96.032810
2361.000000	96.036060
2360.000000	96.043327
2359.000000	96.049367
2358.000000	96.049924
2357.000000	96.046239
2356.000000	96.041980
2355.000000	96.039931
2354.000000	96.041672
2353.000000	96.046465
2352.000000	96.049961
2351.000000	96.048983
2350.000000	96.044103
2349.000000	96.036851
2348.000000	96.029341
2347.000000	96.025511
2346.000000	96.028208
2345.000000	96.034450
2344.000000	96.039073
2343.000000	96.040459
2342.000000	96.039178
2341.000000	96.036999
2340.000000	96.036448
2339.000000	96.038184
2338.000000	96.040418
2337.000000	96.040525
2336.000000	96.037813
2335.000000	96.035116
2334.000000	96.036373
2333.000000	96.041939
2332.000000	96.046971
2331.000000	96.046779
2330.000000	96.040974
2329.000000	96.030655
2328.000000	96.015898
2327.000000	95.997953
2326.000000	95.982524
2325.000000	95.976705
2324.000000	95.982529
2323.000000	95.994699
2322.000000	96.004640
2321.000000	96.007655
2320.000000	96.005140
2319.000000	96.001185
2318.000000	95.998551
2317.000000	95.998160
2316.000000	96.000662
2315.000000	96.006530
2314.000000	96.015052
2313.000000	96.024795
2312.000000	96.035602
2311.000000	96.048675
2310.000000	96.063127
2309.000000	96.073760
2308.000000	96.075089
2307.000000	96.067633
2306.000000	96.058300
2305.000000	96.053581
2304.000000	96.053803
2303.000000	96.055007
2302.000000	96.054516
2301.000000	96.052934
2300.000000	96.051391
2299.000000	96.049356
2298.000000	96.045616
2297.000000	96.039224
2296.000000	96.028852
2295.000000	96.013231
2294.000000	95.994267
2293.000000	95.978046
2292.000000	95.970303
2291.000000	95.970968
2290.000000	95.974460
2289.000000	95.975129
2288.000000	95.971306
2287.000000	95.964765
2286.000000	95.958168
2285.000000	95.953326
2284.000000	95.950395
2283.000000	95.948180
2282.000000	95.945985
2281.000000	95.945169
2280.000000	95.947886
2279.000000	95.954572
2278.000000	95.963832
2277.000000	95.974332
2276.000000	95.985299
2275.000000	95.995780
2274.000000	96.005456
2273.000000	96.015815
2272.000000	96.028496
2271.000000	96.042371
2270.000000	96.054187
2269.000000	96.062093
2268.000000	96.066900
2267.000000	96.070286
2266.000000	96.073789
2265.000000	96.078804
2264.000000	96.084800
2263.000000	96.088073
2262.000000	96.085702
2261.000000	96.080735
2260.000000	96.080063
2259.000000	96.087263
2258.000000	96.100902
2257.000000	96.119306
2256.000000	96.141248
2255.000000	96.160850
2254.000000	96.168248
2253.000000	96.160125
2252.000000	96.145931
2251.000000	96.139512
2250.000000	96.146174
2249.000000	96.160576
2248.000000	96.173538
2247.000000	96.178497
2246.000000	96.174424
2245.000000	96.165648
2244.000000	96.158278
2243.000000	96.154577
2242.000000	96.152549
2241.000000	96.151422
2240.000000	96.153973
2239.000000	96.161765
2238.000000	96.172056
2237.000000	96.182301
2236.000000	96.194211
2235.000000	96.209958
2234.000000	96.226959
2233.000000	96.239769
2232.000000	96.245228
2231.000000	96.243123
2230.000000	96.234182
2229.000000	96.220538
2228.000000	96.206859
2227.000000	96.198808
2226.000000	96.200962
2225.000000	96.215235
2224.000000	96.238496
2223.000000	96.263473
2222.000000	96.286912
2221.000000	96.315728
2220.000000	96.357829
2219.000000	96.406134
2218.000000	96.440649
2217.000000	96.450513
2216.000000	96.446589
2215.000000	96.446754
2214.000000	96.456092
2213.000000	96.468028
2212.000000	96.477642
2211.000000	96.485659
2210.000000	96.493997
2209.000000	96.504649
2208.000000	96.519041
2207.000000	96.533059
2206.000000	96.538268
2205.000000	96.534134
2204.000000	96.531947
2203.000000	96.538801
2202.000000	96.544432
2201.000000	96.533091
2200.000000	96.503772
2199.000000	96.469934
2198.000000	96.444421
2197.000000	96.432932
2196.000000	96.436375
2195.000000	96.448900
2194.000000	96.456419
2193.000000	96.447834
2192.000000	96.428290
2191.000000	96.414350
2190.000000	96.416914
2189.000000	96.433834
2188.000000	96.455398
2187.000000	96.471076
2186.000000	96.474663
2185.000000	96.470667
2184.000000	96.472619
2183.000000	96.486762
2182.000000	96.499914
2181.000000	96.492251
2180.000000	96.460908
2179.000000	96.423049
2178.000000	96.397596
2177.000000	96.389403
2176.000000	96.388852
2175.000000	96.382938
2174.000000	96.367260
2173.000000	96.347724
2172.000000	96.328778
2171.000000	96.303948
2170.000000	96.266733
2169.000000	96.230003
2168.000000	96.220943
2167.000000	96.249112
2166.000000	96.290050
2165.000000	96.310251
2164.000000	96.304006
2163.000000	96.299245
2162.000000	96.334726
2161.000000	96.435161
2160.000000	96.588213
2159.000000	96.736206
2158.000000	96.814317
2157.000000	96.809357
2156.000000	96.761371
2155.000000	96.708512
2154.000000	96.655260
2153.000000	96.595314
2152.000000	96.540078
2151.000000	96.508836
2150.000000	96.503512
2149.000000	96.508840
2148.000000	96.511935
2147.000000	96.509484
2146.000000	96.500604
2145.000000	96.485681
2144.000000	96.469794
2143.000000	96.457133
2142.000000	96.443690
2141.000000	96.422656
2140.000000	96.395231
2139.000000	96.371156
2138.000000	96.361106
2137.000000	96.371326
2136.000000	96.399167
2135.000000	96.428485
2134.000000	96.435794
2133.000000	96.409261
2132.000000	96.359658
2131.000000	96.308343
2130.000000	96.268351
2129.000000	96.240174
2128.000000	96.219918
2127.000000	96.204517
2126.000000	96.191058
2125.000000	96.177812
2124.000000	96.167106
2123.000000	96.163495
2122.000000	96.168577
2121.000000	96.179695
2120.000000	96.192886
2119.000000	96.204986
2118.000000	96.214177
2117.000000	96.221406
2116.000000	96.230240
2115.000000	96.242745
2114.000000	96.256856
2113.000000	96.269884
2112.000000	96.281771
2111.000000	96.291448
2110.000000	96.292884
2109.000000	96.279548
2108.000000	96.251846
2107.000000	96.217256
2106.000000	96.185268
2105.000000	96.164247
2104.000000	96.158098
2103.000000	96.160775
2102.000000	96.157781
2101.000000	96.139716
2100.000000	96.112997
2099.000000	96.092065
2098.000000	96.083209
2097.000000	96.081409
2096.000000	96.080665
2095.000000	96.079597
2094.000000	96.077372
2093.000000	96.072731
2092.000000	96.068906
2091.000000	96.073109
2090.000000	96.088744
2089.000000	96.112866
2088.000000	96.143227
2087.000000	96.182038
2086.000000	96.228790
2085.000000	96.273918
2084.000000	96.304953
2083.000000	96.318127
2082.000000	96.321243
2081.000000	96.326159
2080.000000	96.339359
2079.000000	96.357417
2078.000000	96.370217
2077.000000	96.370000
2076.000000	96.358243
2075.000000	96.343227
2074.000000	96.332892
2073.000000	96.331695
2072.000000	96.341528
2071.000000	96.361754
2070.000000	96.387957
2069.000000	96.413459
2068.000000	96.433347
2067.000000	96.446269
2066.000000	96.453383
2065.000000	96.457291
2064.000000	96.460069
2063.000000	96.459572
2062.000000	96.450378
2061.000000	96.431767
2060.000000	96.411902
2059.000000	96.400338
2058.000000	96.398307
2057.000000	96.399233
2056.000000	96.395885
2055.000000	96.383984
2054.000000	96.363151
2053.000000	96.339549
2052.000000	96.324409
2051.000000	96.324473
2050.000000	96.334282
2049.000000	96.342231
2048.000000	96.343974
2047.000000	96.343048
2046.000000	96.340364
2045.000000	96.334623
2044.000000	96.332081
2043.000000	96.343084
2042.000000	96.366254
2041.000000	96.386295
2040.000000	96.392688
2039.000000	96.390883
2038.000000	96.389716
2037.000000	96.388279
2036.000000	96.381925
2035.000000	96.373934
2034.000000	96.371862
2033.000000	96.374412
2032.000000	96.369865
2031.000000	96.348590
2030.000000	96.314925
2029.000000	96.287924
2028.000000	96.289489
2027.000000	96.326502
2026.000000	96.381137
2025.000000	96.420681
2024.000000	96.422952
2023.000000	96.393187
2022.000000	96.354727
2021.000000	96.326299
2020.000000	96.310571
2019.000000	96.303634
2018.000000	96.308060
2017.000000	96.328117
2016.000000	96.354706
2015.000000	96.366376
2014.000000	96.350804
2013.000000	96.319295
2012.000000	96.292764
2011.000000	96.277938
2010.000000	96.266303
2009.000000	96.250691
2008.000000	96.230292
2007.000000	96.201642
2006.000000	96.160206
2005.000000	96.112493
2004.000000	96.071938
2003.000000	96.041188
2002.000000	96.009867
2001.000000	95.970450
2000.000000	95.924527
1999.000000	95.873862
1998.000000	95.820947
1997.000000	95.781110
1996.000000	95.777791
1995.000000	95.820126
1994.000000	95.894879
1993.000000	95.982201
1992.000000	96.074448
1991.000000	96.174352
1990.000000	96.279793
1989.000000	96.381851
1988.000000	96.474750
1987.000000	96.559178
1986.000000	96.636612
1985.000000	96.704744
1984.000000	96.757116
1983.000000	96.786550
1982.000000	96.795068
1981.000000	96.802371
1980.000000	96.830496
1979.000000	96.871091
1978.000000	96.883886
1977.000000	96.842835
1976.000000	96.767711
1975.000000	96.693267
1974.000000	96.629180
1973.000000	96.566737
1972.000000	96.504895
1971.000000	96.453272
1970.000000	96.418202
1969.000000	96.395635
1968.000000	96.373363
1967.000000	96.336599
1966.000000	96.278461
1965.000000	96.210841
1964.000000	96.157834
1963.000000	96.134182
1962.000000	96.134694
1961.000000	96.143446
1960.000000	96.149062
1959.000000	96.151027
1958.000000	96.155309
1957.000000	96.166371
1956.000000	96.180957
1955.000000	96.190050
1954.000000	96.190332
1953.000000	96.190285
1952.000000	96.199095
1951.000000	96.211812
1950.000000	96.213785
1949.000000	96.201679
1948.000000	96.190101
1947.000000	96.192738
1946.000000	96.205697
1945.000000	96.213895
1944.000000	96.207417
1943.000000	96.187711
1942.000000	96.163711
1941.000000	96.145624
1940.000000	96.136571
1939.000000	96.128655
1938.000000	96.111914
1937.000000	96.087328
1936.000000	96.067355
1935.000000	96.063034
1934.000000	96.074557
1933.000000	96.094109
1932.000000	96.113974
1931.000000	96.129328
1930.000000	96.136544
1929.000000	96.136918
1928.000000	96.137418
1927.000000	96.143041
1926.000000	96.152141
1925.000000	96.161211
1924.000000	96.171078
1923.000000	96.183409
1922.000000	96.196371
1921.000000	96.209553
1920.000000	96.225800
1919.000000	96.242931
1918.000000	96.250222
1917.000000	96.243011
1916.000000	96.232651
1915.000000	96.230041
1914.000000	96.233940
1913.000000	96.240000
1912.000000	96.249814
1911.000000	96.265991
1910.000000	96.283408
1909.000000	96.296313
1908.000000	96.307582
1907.000000	96.321302
1906.000000	96.332376
1905.000000	96.333402
1904.000000	96.328173
1903.000000	96.326916
1902.000000	96.334006
1901.000000	96.349792
1900.000000	96.375698
1899.000000	96.409999
1898.000000	96.443950
1897.000000	96.468929
1896.000000	96.486329
1895.000000	96.501972
1894.000000	96.515339
1893.000000	96.524576
1892.000000	96.534409
1891.000000	96.549631
1890.000000	96.565241
1889.000000	96.572756
1888.000000	96.572361
1887.000000	96.566257
1886.000000	96.549994
1885.000000	96.522803
1884.000000	96.496390
1883.000000	96.481868
1882.000000	96.475083
1881.000000	96.465740
1880.000000	96.452279
1879.000000	96.439326
1878.000000	96.428266
1877.000000	96.417947
1876.000000	96.410825
1875.000000	96.409672
1874.000000	96.409765
1873.000000	96.404585
1872.000000	96.396321
1871.000000	96.392552
1870.000000	96.394439
1869.000000	96.396145
1868.000000	96.398686
1867.000000	96.407592
1866.000000	96.417822
1865.000000	96.420338
1864.000000	96.415049
1863.000000	96.407120
1862.000000	96.398224
1861.000000	96.388968
1860.000000	96.385861
1859.000000	96.394385
1858.000000	96.407558
1857.000000	96.412996
1856.000000	96.408373
1855.000000	96.401210
1854.000000	96.397177
1853.000000	96.397416
1852.000000	96.401336
1851.000000	96.405603
1850.000000	96.406087
1849.000000	96.403130
1848.000000	96.403270
1847.000000	96.410514
1846.000000	96.420149
1845.000000	96.423521
1844.000000	96.418760
1843.000000	96.411699
1842.000000	96.406125
1841.000000	96.402839
1840.000000	96.401957
1839.000000	96.401453
1838.000000	96.396923
1837.000000	96.387742
1836.000000	96.381062
1835.000000	96.382548
1834.000000	96.388595
1833.000000	96.391352
1832.000000	96.386585
1831.000000	96.377659
1830.000000	96.371194
1829.000000	96.368825
1828.000000	96.368674
1827.000000	96.369574
1826.000000	96.370315
1825.000000	96.367997
1824.000000	96.362009
1823.000000	96.356947
1822.000000	96.355252
1821.000000	96.355113
1820.000000	96.355647
1819.000000	96.359257
1818.000000	96.364735
1817.000000	96.364814
1816.000000	96.357473
1815.000000	96.348212
1814.000000	96.340867
1813.000000	96.333523
1812.000000	96.325642
1811.000000	96.323651
1810.000000	96.328367
1809.000000	96.330692
1808.000000	96.327799
1807.000000	96.325331
1806.000000	96.324195
1805.000000	96.319582
1804.000000	96.311842
1803.000000	96.306798
1802.000000	96.306074
1801.000000	96.304951
1800.000000	96.304617
1799.000000	96.312756
1798.000000	96.326242
1797.000000	96.334259
1796.000000	96.336142
1795.000000	96.339351
1794.000000	96.346231
1793.000000	96.348870
1792.000000	96.343296
1791.000000	96.339843
1790.000000	96.343604
1789.000000	96.347976
1788.000000	96.349897
1787.000000	96.353150
1786.000000	96.358218
1785.000000	96.359273
1784.000000	96.353987
1783.000000	96.345449
1782.000000	96.337110
1781.000000	96.331197
1780.000000	96.328494
1779.000000	96.328619
1778.000000	96.328218
1777.000000	96.325273
1776.000000	96.322286
1775.000000	96.320317
1774.000000	96.317923
1773.000000	96.311158
1772.000000	96.296121
1771.000000	96.278999
1770.000000	96.269596
1769.000000	96.266583
1768.000000	96.263117
1767.000000	96.258179
1766.000000	96.254676
1765.000000	96.252532
1764.000000	96.250073
1763.000000	96.250137
1762.000000	96.258523
1761.000000	96.273295
1760.000000	96.286477
1759.000000	96.295771
1758.000000	96.304093
1757.000000	96.315203
1756.000000	96.325621
1755.000000	96.331513
1754.000000	96.336574
1753.000000	96.345995
1752.000000	96.358780
1751.000000	96.369020
1750.000000	96.378735
1749.000000	96.395633
1748.000000	96.416902
1747.000000	96.432519
1746.000000	96.442607
1745.000000	96.453407
1744.000000	96.464429
1743.000000	96.472997
1742.000000	96.482407
1741.000000	96.496018
1740.000000	96.510104
1739.000000	96.518305
1738.000000	96.523774
1737.000000	96.530642
1736.000000	96.539875
1735.000000	96.548675
1734.000000	96.549039
1733.000000	96.539804
1732.000000	96.530773
1731.000000	96.524436
1730.000000	96.516937
1729.000000	96.513131
1728.000000	96.513719
1727.000000	96.515376
1726.000000	96.517851
1725.000000	96.526188
1724.000000	96.540753
1723.000000	96.557245
1722.000000	96.570794
1721.000000	96.581805
1720.000000	96.593449
1719.000000	96.613527
1718.000000	96.642107
1717.000000	96.657183
1716.000000	96.656519
1715.000000	96.656771
1714.000000	96.654608
1713.000000	96.645524
1712.000000	96.639212
1711.000000	96.643801
1710.000000	96.655255
1709.000000	96.664797
1708.000000	96.669152
1707.000000	96.672195
1706.000000	96.675271
1705.000000	96.673030
1704.000000	96.672548
1703.000000	96.683353
1702.000000	96.705336
1701.000000	96.721678
1700.000000	96.720193
1699.000000	96.720525
1698.000000	96.730017
1697.000000	96.729177
1696.000000	96.714874
1695.000000	96.707949
1694.000000	96.714373
1693.000000	96.723309
1692.000000	96.729194
1691.000000	96.736607
1690.000000	96.747973
1689.000000	96.758920
1688.000000	96.766855
1687.000000	96.771767
1686.000000	96.776287
1685.000000	96.780926
1684.000000	96.786083
1683.000000	96.792251
1682.000000	96.800052
1681.000000	96.810591
1680.000000	96.819810
1679.000000	96.829125
1678.000000	96.836404
1677.000000	96.843934
1676.000000	96.853195
1675.000000	96.863311
1674.000000	96.874221
1673.000000	96.888661
1672.000000	96.903965
1671.000000	96.913958
1670.000000	96.912088
1669.000000	96.902776
1668.000000	96.897236
1667.000000	96.896711
1666.000000	96.897501
1665.000000	96.897150
1664.000000	96.896101
1663.000000	96.894836
1662.000000	96.890365
1661.000000	96.885309
1660.000000	96.881630
1659.000000	96.878505
1658.000000	96.869968
1657.000000	96.862219
1656.000000	96.855873
1655.000000	96.854953
1654.000000	96.853754
1653.000000	96.836670
1652.000000	96.812337
1651.000000	96.799758
1650.000000	96.800657
1649.000000	96.799060
1648.000000	96.802736
1647.000000	96.810248
1646.000000	96.814696
1645.000000	96.810179
1644.000000	96.807068
1643.000000	96.807750
1642.000000	96.811378
1641.000000	96.816019
1640.000000	96.823271
1639.000000	96.833387
1638.000000	96.842876
1637.000000	96.851375
1636.000000	96.862895
1635.000000	96.873200
1634.000000	96.879267
1633.000000	96.885229
1632.000000	96.894277
1631.000000	96.906108
1630.000000	96.915135
1629.000000	96.921054
1628.000000	96.928974
1627.000000	96.939558
1626.000000	96.948538
1625.000000	96.956087
1624.000000	96.966770
1623.000000	96.977405
1622.000000	96.978968
1621.000000	96.975493
1620.000000	96.974401
1619.000000	96.975190
1618.000000	96.974037
1617.000000	96.973007
1616.000000	96.978259
1615.000000	96.984232
1614.000000	96.983445
1613.000000	96.979026
1612.000000	96.979772
1611.000000	96.984834
1610.000000	96.984610
1609.000000	96.978400
1608.000000	96.975156
1607.000000	96.975460
1606.000000	96.972739
1605.000000	96.968250
1604.000000	96.967873
1603.000000	96.970699
1602.000000	96.971039
1601.000000	96.969654
1600.000000	96.971917
1599.000000	96.976728
1598.000000	96.978054
1597.000000	96.974945
1596.000000	96.973347
1595.000000	96.975925
1594.000000	96.977716
1593.000000	96.976241
1592.000000	96.975132
1591.000000	96.975127
1590.000000	96.972214
1589.000000	96.967033
1588.000000	96.965080
1587.000000	96.966080
1586.000000	96.963616
1585.000000	96.956978
1584.000000	96.950547
1583.000000	96.942707
1582.000000	96.929351
1581.000000	96.913979
1580.000000	96.902226
1579.000000	96.889654
1578.000000	96.868569
1577.000000	96.844952
1576.000000	96.834121
1575.000000	96.831716
1574.000000	96.825272
1573.000000	96.814395
1572.000000	96.801798
1571.000000	96.791199
1570.000000	96.782288
1569.000000	96.778436
1568.000000	96.780235
1567.000000	96.781522
1566.000000	96.775351
1565.000000	96.766113
1564.000000	96.756380
1563.000000	96.744799
1562.000000	96.724936
1561.000000	96.705199
1560.000000	96.711468
1559.000000	96.744804
1558.000000	96.751599
1557.000000	96.737491
1556.000000	96.738406
1555.000000	96.736975
1554.000000	96.738968
1553.000000	96.732491
1552.000000	96.722608
1551.000000	96.710503
1550.000000	96.702849
1549.000000	96.697469
1548.000000	96.691646
1547.000000	96.682980
1546.000000	96.671187
1545.000000	96.656833
1544.000000	96.644347
1543.000000	96.640344
1542.000000	96.645004
1541.000000	96.647844
1540.000000	96.649916
1539.000000	96.656894
1538.000000	96.664374
1537.000000	96.669293
1536.000000	96.670570
1535.000000	96.677913
1534.000000	96.695115
1533.000000	96.711837
1532.000000	96.720186
1531.000000	96.730244
1530.000000	96.741531
1529.000000	96.744223
1528.000000	96.739036
1527.000000	96.737818
1526.000000	96.744679
1525.000000	96.748540
1524.000000	96.742165
1523.000000	96.733896
1522.000000	96.730812
1521.000000	96.725291
1520.000000	96.716368
1519.000000	96.713752
1518.000000	96.716808
1517.000000	96.716393
1516.000000	96.710347
1515.000000	96.705296
1514.000000	96.703494
1513.000000	96.698721
1512.000000	96.689607
1511.000000	96.684671
1510.000000	96.687410
1509.000000	96.690390
1508.000000	96.684923
1507.000000	96.673000
1506.000000	96.642478
1505.000000	96.580898
1504.000000	96.494958
1503.000000	96.372690
1502.000000	96.180019
1501.000000	95.851945
1500.000000	95.315367
1499.000000	94.510497
1498.000000	93.435386
1497.000000	92.244953
1496.000000	91.285501
1495.000000	90.816646
1494.000000	90.804280
1493.000000	91.099525
1492.000000	91.617312
1491.000000	92.318808
1490.000000	93.110156
1489.000000	93.829796
1488.000000	94.389331
1487.000000	94.805283
1486.000000	95.097031
1485.000000	95.273153
1484.000000	95.349073
1483.000000	95.336124
1482.000000	95.242213
1481.000000	95.100382
1480.000000	94.973964
1479.000000	94.901311
1478.000000	94.860414
1477.000000	94.793547
1476.000000	94.660131
1475.000000	94.453237
1474.000000	94.174469
1473.000000	93.855078
1472.000000	93.577579
1471.000000	93.370695
1470.000000	93.139842
1469.000000	92.769447
1468.000000	92.225486
1467.000000	91.595101
1466.000000	91.094619
1465.000000	90.980215
1464.000000	91.289139
1463.000000	91.763951
1462.000000	92.135808
1461.000000	92.307785
1460.000000	92.315880
1459.000000	92.263395
1458.000000	92.267581
1457.000000	92.351157
1456.000000	92.420526
1455.000000	92.443301
1454.000000	92.482964
1453.000000	92.587337
1452.000000	92.753696
1451.000000	92.920881
1450.000000	92.998250
1449.000000	92.880856
1448.000000	92.489664
1447.000000	91.865365
1446.000000	91.194222
1445.000000	90.707684
1444.000000	90.590926
1443.000000	90.919625
1442.000000	91.601828
1441.000000	92.417792
1440.000000	93.159173
1439.000000	93.733089
1438.000000	94.146185
1437.000000	94.409143
1436.000000	94.491980
1435.000000	94.405289
1434.000000	94.229527
1433.000000	94.057037
1432.000000	93.985589
1431.000000	94.097243
1430.000000	94.395419
1429.000000	94.784406
1428.000000	95.141914
1427.000000	95.406843
1426.000000	95.591598
1425.000000	95.732520
1424.000000	95.838597
1423.000000	95.901373
1422.000000	95.926535
1421.000000	95.925086
1420.000000	95.889491
1419.000000	95.809360
1418.000000	95.696211
1417.000000	95.555382
1416.000000	95.376853
1415.000000	95.170588
1414.000000	94.978228
1413.000000	94.845162
1412.000000	94.799046
1411.000000	94.849749
1410.000000	94.989723
1409.000000	95.184874
1408.000000	95.389070
1407.000000	95.573562
1406.000000	95.735868
1405.000000	95.879285
1404.000000	95.991379
1403.000000	96.064124
1402.000000	96.112908
1401.000000	96.156744
1400.000000	96.198685
1399.000000	96.230447
1398.000000	96.247517
1397.000000	96.246988
1396.000000	96.221990
1395.000000	96.178535
1394.000000	96.145628
1393.000000	96.137087
1392.000000	96.125433
1391.000000	96.072447
1390.000000	95.944550
1389.000000	95.698131
1388.000000	95.301107
1387.000000	94.818040
1386.000000	94.418230
1385.000000	94.230994
1384.000000	94.250629
1383.000000	94.369042
1382.000000	94.436660
1381.000000	94.335904
1380.000000	94.058972
1379.000000	93.730892
1378.000000	93.539761
1377.000000	93.611653
1376.000000	93.944923
1375.000000	94.431574
1374.000000	94.916428
1373.000000	95.285999
1372.000000	95.521708
1371.000000	95.657265
1370.000000	95.723407
1369.000000	95.737498
1368.000000	95.705092
1367.000000	95.624587
1366.000000	95.491539
1365.000000	95.291614
1364.000000	94.987180
1363.000000	94.517210
1362.000000	93.805529
1361.000000	92.759252
1360.000000	91.267414
1359.000000	89.263421
1358.000000	86.865769
1357.000000	84.473016
1356.000000	82.670515
1355.000000	81.957557
1354.000000	82.462784
1353.000000	83.888029
1352.000000	85.750957
1351.000000	87.652965
1350.000000	89.361989
1349.000000	90.780581
1348.000000	91.895582
1347.000000	92.743451
1346.000000	93.378996
1345.000000	93.848261
1344.000000	94.179497
1343.000000	94.390737
1342.000000	94.485459
1341.000000	94.438577
1340.000000	94.190700
1339.000000	93.643813
1338.000000	92.676352
1337.000000	91.201693
1336.000000	89.289855
1335.000000	87.286335
1334.000000	85.754709
1333.000000	85.197848
1332.000000	85.767380
1331.000000	87.184433
1330.000000	88.928880
1329.000000	90.555989
1328.000000	91.863051
1327.000000	92.837933
1326.000000	93.545478
1325.000000	94.059452
1324.000000	94.438741
1323.000000	94.721972
1322.000000	94.933367
1321.000000	95.092360
1320.000000	95.217102
1319.000000	95.317443
1318.000000	95.395100
1317.000000	95.453322
1316.000000	95.497544
1315.000000	95.529628
1314.000000	95.545998
1313.000000	95.542280
1312.000000	95.516655
1311.000000	95.466566
1310.000000	95.387361
1309.000000	95.272419
1308.000000	95.112617
1307.000000	94.894359
1306.000000	94.594720
1305.000000	94.182386
1304.000000	93.612863
1303.000000	92.822528
1302.000000	91.734274
1301.000000	90.283509
1300.000000	88.481563
1299.000000	86.488705
1298.000000	84.627924
1297.000000	83.293927
1296.000000	82.793816
1295.000000	83.196197
1294.000000	84.301756
1293.000000	85.770259
1292.000000	87.284622
1291.000000	88.645333
1290.000000	89.770183
1289.000000	90.654151
1288.000000	91.329501
1287.000000	91.833190
1286.000000	92.191817
1285.000000	92.424451
1284.000000	92.549868
1283.000000	92.586831
1282.000000	92.558243
1281.000000	92.492756
1280.000000	92.421893
1279.000000	92.372163
1278.000000	92.357059
1277.000000	92.380726
1276.000000	92.446035
1275.000000	92.554603
1274.000000	92.701257
1273.000000	92.872583
1272.000000	93.049777
1271.000000	93.209655
1270.000000	93.325911
1269.000000	93.372344
1268.000000	93.316451
1267.000000	93.110673
1266.000000	92.681165
1265.000000	91.923536
1264.000000	90.728135
1263.000000	89.048265
1262.000000	87.008297
1261.000000	84.974853
1260.000000	83.482078
1259.000000	82.972506
1258.000000	83.538537
1257.000000	84.896254
1256.000000	86.595228
1255.000000	88.253213
1254.000000	89.657029
1253.000000	90.751342
1252.000000	91.572173
1251.000000	92.185107
1250.000000	92.648533
1249.000000	93.001075
1248.000000	93.263733
1247.000000	93.448898
1246.000000	93.561892
1245.000000	93.589807
1244.000000	93.501523
1243.000000	93.243559
1242.000000	92.741924
1241.000000	91.949348
1240.000000	90.948529
1239.000000	90.019076
1238.000000	89.537302
1237.000000	89.739243
1236.000000	90.553482
1235.000000	91.664955
1234.000000	92.736049
1233.000000	93.583898
1232.000000	94.190546
1231.000000	94.610584
1230.000000	94.901267
1229.000000	95.103005
1228.000000	95.236572
1227.000000	95.303313
1226.000000	95.297147
1225.000000	95.208344
1224.000000	95.019863
1223.000000	94.714723
1222.000000	94.308237
1221.000000	93.879593
1220.000000	93.557565
1219.000000	93.457102
1218.000000	93.612965
1217.000000	93.964979
1216.000000	94.400199
1215.000000	94.816012
1214.000000	95.158284
1213.000000	95.419619
1212.000000	95.614919
1211.000000	95.761280
1210.000000	95.874288
1209.000000	95.967899
1208.000000	96.050358
1207.000000	96.122578
1206.000000	96.184830
1205.000000	96.239909
1204.000000	96.289128
1203.000000	96.330755
1202.000000	96.364410
1201.000000	96.393847
1200.000000	96.422413
1199.000000	96.450034
1198.000000	96.476847
1197.000000	96.504755
1196.000000	96.533085
1195.000000	96.556929
1194.000000	96.573017
1193.000000	96.583828
1192.000000	96.592139
1191.000000	96.595243
1190.000000	96.588141
1189.000000	96.570034
1188.000000	96.544560
1187.000000	96.514655
1186.000000	96.480233
1185.000000	96.439565
1184.000000	96.390639
1183.000000	96.331967
1182.000000	96.262284
1181.000000	96.180055
1180.000000	96.083887
1179.000000	95.974076
1178.000000	95.853242
1177.000000	95.722123
1176.000000	95.576263
1175.000000	95.409333
1174.000000	95.217799
1173.000000	95.001225
1172.000000	94.755743
1171.000000	94.470650
1170.000000	94.131800
1169.000000	93.721707
1168.000000	93.220086
1167.000000	92.598910
1166.000000	91.817914
1165.000000	90.826898
1164.000000	89.572941
1163.000000	88.031198
1162.000000	86.240075
1161.000000	84.320751
1160.000000	82.456890
1159.000000	80.821409
1158.000000	79.490017
1157.000000	78.421411
1156.000000	77.529020
1155.000000	76.766560
1154.000000	76.166569
1153.000000	75.808368
1152.000000	75.749005
1151.000000	75.949297
1150.000000	76.243070
1149.000000	76.401522
1148.000000	76.245545
1147.000000	75.714973
1146.000000	74.859071
1145.000000	73.793245
1144.000000	72.664198
1143.000000	71.621514
1142.000000	70.775094
1141.000000	70.153092
1140.000000	69.690904
1139.000000	69.252920
1138.000000	68.695210
1137.000000	67.955132
1136.000000	67.096043
1135.000000	66.241855
1134.000000	65.451735
1133.000000	64.667024
1132.000000	63.780239
1131.000000	62.738079
1130.000000	61.586268
1129.000000	60.447165
1128.000000	59.462386
1127.000000	58.723347
1126.000000	58.236655
1125.000000	57.954605
1124.000000	57.837856
1123.000000	57.871366
1122.000000	58.032897
1121.000000	58.295242
1120.000000	58.649836
1119.000000	59.104485
1118.000000	59.655454
1117.000000	60.282541
1116.000000	60.960588
1115.000000	61.634083
1114.000000	62.159785
1113.000000	62.281651
1112.000000	61.699453
1111.000000	60.195639
1110.000000	57.789331
1109.000000	54.811426
1108.000000	51.811669
1107.000000	49.328861
1106.000000	47.680112
1105.000000	46.930105
1104.000000	47.000135
1103.000000	47.756457
1102.000000	49.014040
1101.000000	50.579896
1100.000000	52.314452
1099.000000	54.127827
1098.000000	55.947217
1097.000000	57.712630
1096.000000	59.402153
1095.000000	61.015465
1094.000000	62.540248
1093.000000	63.961695
1092.000000	65.291234
1091.000000	66.552413
1090.000000	67.747416
1089.000000	68.867061
1088.000000	69.915071
1087.000000	70.902691
1086.000000	71.825511
1085.000000	72.669782
1084.000000	73.435914
1083.000000	74.121840
1082.000000	74.690845
1081.000000	75.056853
1080.000000	75.090528
1079.000000	74.665589
1078.000000	73.765921
1077.000000	72.615240
1076.000000	71.667230
1075.000000	71.373661
1074.000000	71.896945
1073.000000	73.046511
1072.000000	74.467813
1071.000000	75.856395
1070.000000	77.038080
1069.000000	77.948198
1068.000000	78.595022
1067.000000	79.016797
1066.000000	79.231802
1065.000000	79.199523
1064.000000	78.829437
1063.000000	78.005763
1062.000000	76.643757
1061.000000	74.795096
1060.000000	72.740854
1059.000000	70.953758
1058.000000	69.891721
1057.000000	69.775662
1056.000000	70.523671
1055.000000	71.852100
1054.000000	73.423398
1053.000000	74.969024
1052.000000	76.334552
1051.000000	77.442773
1050.000000	78.236656
1049.000000	78.652109
1048.000000	78.617691
1047.000000	78.056666
1046.000000	76.921596
1045.000000	75.269874
1044.000000	73.356187
1043.000000	71.624079
1042.000000	70.541588
1041.000000	70.383620
1040.000000	71.130862
1039.000000	72.524559
1038.000000	74.217179
1037.000000	75.927948
1036.000000	77.501908
1035.000000	78.887094
1034.000000	80.080862
1033.000000	81.099210
1032.000000	81.963889
1031.000000	82.693498
1030.000000	83.302734
1029.000000	83.815696
1028.000000	84.272849
1027.000000	84.710702
1026.000000	85.142333
1025.000000	85.559864
1024.000000	85.953219
1023.000000	86.318749
1022.000000	86.652820
1021.000000	86.951621
1020.000000	87.217061
1019.000000	87.455700
1018.000000	87.671070
1017.000000	87.861176
1016.000000	88.025680
1015.000000	88.168914
1014.000000	88.294188
1013.000000	88.400577
1012.000000	88.484502
1011.000000	88.541586
1010.000000	88.565139
1009.000000	88.545857
1008.000000	88.476199
1007.000000	88.348304
1006.000000	88.148753
1005.000000	87.858348
1004.000000	87.455117
1003.000000	86.919300
1002.000000	86.224058
1001.000000	85.327883
1000.000000	84.176780
999.000000	82.706059
998.000000	80.856864
997.000000	78.600768
996.000000	75.983400
995.000000	73.158287
994.000000	70.383202
993.000000	67.975615
992.000000	66.240012
991.000000	65.369957
990.000000	65.366998
989.000000	66.069254
988.000000	67.245729
987.000000	68.688025
986.000000	70.249360
985.000000	71.842693
984.000000	73.431211
983.000000	74.991082
982.000000	76.484132
981.000000	77.865333
980.000000	79.109352
979.000000	80.217918
978.000000	81.207508
977.000000	82.097708
976.000000	82.905289
975.000000	83.640980
974.000000	84.303856
973.000000	84.888705
972.000000	85.397812
971.000000	85.840762
970.000000	86.227897
969.000000	86.565422
968.000000	86.858394
967.000000	87.111408
966.000000	87.324243
965.000000	87.494608
964.000000	87.624016
963.000000	87.717928
962.000000	87.778183
961.000000	87.798153
960.000000	87.770161
959.000000	87.691823
958.000000	87.562128
957.000000	87.374367
956.000000	87.110551
955.000000	86.743534
954.000000	86.233026
953.000000	85.517451
952.000000	84.513268
951.000000	83.110619
950.000000	81.189841
949.000000	78.668143
948.000000	75.591905
947.000000	72.227250
946.000000	69.065080
945.000000	66.688573
944.000000	65.552333
943.000000	65.796130
942.000000	67.199501
941.000000	69.329864
940.000000	71.746828
939.000000	74.126467
938.000000	76.283490
937.000000	78.139955
936.000000	79.695645
935.000000	80.991425
934.000000	82.079997
933.000000	83.009895
932.000000	83.823066
931.000000	84.546444
930.000000	85.189098
929.000000	85.753325
928.000000	86.244910
927.000000	86.675650
926.000000	87.056672
925.000000	87.397432
924.000000	87.708416
923.000000	87.997711
922.000000	88.268118
921.000000	88.519893
920.000000	88.755474
919.000000	88.978151
918.000000	89.188324
917.000000	89.386514
916.000000	89.577160
915.000000	89.764639
914.000000	89.947121
913.000000	90.118276
912.000000	90.274819
911.000000	90.418830
910.000000	90.553905
909.000000	90.682758
908.000000	90.806911
907.000000	90.925611
906.000000	91.035621
905.000000	91.134598
904.000000	91.223807
903.000000	91.305324
902.000000	91.379019
901.000000	91.443869
900.000000	91.498483
899.000000	91.538081
898.000000	91.553602
897.000000	91.538355
896.000000	91.491209
895.000000	91.407414
894.000000	91.270068
893.000000	91.052391
892.000000	90.726798
891.000000	90.273569
890.000000	89.700344
889.000000	89.076886
888.000000	88.549324
887.000000	88.286781
886.000000	88.380488
885.000000	88.786646
884.000000	89.360218
883.000000	89.944219
882.000000	90.441186
881.000000	90.827366
880.000000	91.126863
879.000000	91.373939
878.000000	91.586549
877.000000	91.759903
876.000000	91.879292
875.000000	91.934897
874.000000	91.927228
873.000000	91.859322
872.000000	91.722205
871.000000	91.488747
870.000000	91.111570
869.000000	90.526066
868.000000	89.647278
867.000000	88.350514
866.000000	86.467120
865.000000	83.814544
864.000000	80.297939
863.000000	76.045836
862.000000	71.493200
861.000000	67.330862
860.000000	64.311118
859.000000	62.965833
858.000000	63.389675
857.000000	65.252152
856.000000	67.988754
855.000000	71.034378
854.000000	73.975082
853.000000	76.588838
852.000000	78.812614
851.000000	80.668367
850.000000	82.204415
849.000000	83.468234
848.000000	84.505185
847.000000	85.355159
846.000000	86.051441
845.000000	86.619917
844.000000	87.075457
843.000000	87.415968
842.000000	87.612940
841.000000	87.615936
840.000000	87.368210
839.000000	86.828768
838.000000	86.000227
837.000000	84.947170
836.000000	83.793078
835.000000	82.679823
834.000000	81.700850
833.000000	80.846750
832.000000	80.002659
831.000000	79.030613
830.000000	77.920335
829.000000	76.908678
828.000000	76.420244
827.000000	76.818132
826.000000	78.139722
825.000000	80.060431
824.000000	82.107905
823.000000	83.913900
822.000000	85.327549
821.000000	86.372767
820.000000	87.150110
819.000000	87.764129
818.000000	88.288682
817.000000	88.757969
816.000000	89.177450
815.000000	89.543332
814.000000	89.853571
813.000000	90.111803
812.000000	90.327876
811.000000	90.515447
810.000000	90.685589
809.000000	90.841220
808.000000	90.979623
807.000000	91.098947
806.000000	91.201247
805.000000	91.291429
804.000000	91.375302
803.000000	91.458129
802.000000	91.543769
801.000000	91.634856
800.000000	91.732034
799.000000	91.830523
798.000000	91.919684
797.000000	91.990991
796.000000	92.046827
795.000000	92.097538
794.000000	92.149457
793.000000	92.199804
792.000000	92.243299
791.000000	92.278209
790.000000	92.304865
789.000000	92.324205
788.000000	92.341222
787.000000	92.365233
786.000000	92.402630
785.000000	92.452035
784.000000	92.508692
783.000000	92.569623
782.000000	92.631344
781.000000	92.686714
780.000000	92.729999
779.000000	92.764263
778.000000	92.799061
777.000000	92.840166
776.000000	92.884165
775.000000	92.923312
774.000000	92.953061
773.000000	92.974275
772.000000	92.990545
771.000000	93.005733
770.000000	93.023873
769.000000	93.048850
768.000000	93.081293
767.000000	93.115127
766.000000	93.140121
765.000000	93.151471
764.000000	93.156558
763.000000	93.169480
762.000000	93.198105
761.000000	93.237665
760.000000	93.276021
759.000000	93.302682
758.000000	93.313819
757.000000	93.313322
756.000000	93.311159
755.000000	93.317752
754.000000	93.337180
753.000000	93.365722
752.000000	93.396747
751.000000	93.425847
750.000000	93.451570
749.000000	93.473883
748.000000	93.493167
747.000000	93.509519
746.000000	93.522515
745.000000	93.532485
744.000000	93.541746
743.000000	93.552960
742.000000	93.566294
741.000000	93.579736
740.000000	93.591515
739.000000	93.600217
738.000000	93.603478
737.000000	93.600043
736.000000	93.593850
735.000000	93.593232
734.000000	93.603994
733.000000	93.623926
732.000000	93.644763
731.000000	93.659398
730.000000	93.667511
729.000000	93.675015
728.000000	93.688888
727.000000	93.711302
726.000000	93.737872
725.000000	93.762638
724.000000	93.783890
723.000000	93.803208
722.000000	93.819907
721.000000	93.829623
720.000000	93.829588
719.000000	93.823239
718.000000	93.818147
717.000000	93.820494
716.000000	93.831460
715.000000	93.847258
714.000000	93.862400
713.000000	93.873793
712.000000	93.881554
711.000000	93.886407
710.000000	93.889002
709.000000	93.892335
708.000000	93.901189
707.000000	93.916651
706.000000	93.933254
705.000000	93.946133
704.000000	93.959256
703.000000	93.980138
702.000000	94.008671
701.000000	94.035830
700.000000	94.053158
699.000000	94.060888
698.000000	94.066033
697.000000	94.076684
696.000000	94.096650
695.000000	94.120172
694.000000	94.135285
693.000000	94.136026
692.000000	94.129723
691.000000	94.129664
690.000000	94.140639
689.000000	94.157740
688.000000	94.176195
687.000000	94.194408
686.000000	94.209633
685.000000	94.218227
684.000000	94.221466
683.000000	94.224412
682.000000	94.226946
681.000000	94.222835
680.000000	94.210909
679.000000	94.200808
678.000000	94.202486
677.000000	94.213796
676.000000	94.226851
675.000000	94.242168
674.000000	94.267130
673.000000	94.301929
672.000000	94.336831
671.000000	94.364692
670.000000	94.388594
669.000000	94.406233
668.000000	94.389889
667.000000	94.346426
666.000000	94.322959
665.000000	94.310752
664.000000	94.297263
663.000000	94.287204
662.000000	94.287397
661.000000	94.297040
660.000000	94.313239
659.000000	94.334883
658.000000	94.358541
657.000000	94.377943
656.000000	94.392956
655.000000	94.408731
654.000000	94.423163
653.000000	94.428423
652.000000	94.428163
651.000000	94.437269
650.000000	94.460623
649.000000	94.484580
648.000000	94.496686
647.000000	94.500080
646.000000	94.502585
645.000000	94.505204
644.000000	94.506131
643.000000	94.505922
642.000000	94.504855
641.000000	94.502252
640.000000	94.500472
639.000000	94.503961
638.000000	94.511772
637.000000	94.518584
636.000000	94.522301
635.000000	94.521702
634.000000	94.512222
633.000000	94.495970
632.000000	94.490563
631.000000	94.513276
630.000000	94.554596
629.000000	94.582287
628.000000	94.576598
627.000000	94.547568
626.000000	94.517646
625.000000	94.502384
624.000000	94.509007
623.000000	94.535290
622.000000	94.565270
621.000000	94.580364
620.000000	94.579328
619.000000	94.578121
618.000000	94.587526
617.000000	94.604581
616.000000	94.626320
615.000000	94.652858
614.000000	94.672893
613.000000	94.667458
612.000000	94.636915
611.000000	94.608407
610.000000	94.604012
609.000000	94.616737
608.000000	94.629738
607.000000	94.640293
606.000000	94.651652
605.000000	94.656707
604.000000	94.647957
603.000000	94.633142
602.000000	94.626565
601.000000	94.631063
600.000000	94.639879
599.000000	94.646926
598.000000	94.648943
597.000000	94.644688
596.000000	94.639002
595.000000	94.639562
594.000000	94.643831
593.000000	94.639854
592.000000	94.624202
591.000000	94.607799
590.000000	94.596677
589.000000	94.582566
588.000000	94.560401
587.000000	94.538737
586.000000	94.521267
585.000000	94.492276
584.000000	94.438539
583.000000	94.373221
582.000000	94.322068
581.000000	94.290234
580.000000	94.259649
579.000000	94.209778
578.000000	94.127953
577.000000	93.994790
576.000000	93.765915
575.000000	93.358074
574.000000	92.639789
573.000000	91.473112
572.000000	89.841351
571.000000	87.999503
570.000000	86.459892
569.000000	85.742873
568.000000	86.076241
567.000000	87.268425
566.000000	88.834058
565.000000	90.297153
564.000000	91.420892
563.000000	92.194435
562.000000	92.701307
561.000000	93.026343
560.000000	93.236380
559.000000	93.382757
558.000000	93.497539
557.000000	93.592044
556.000000	93.669199
555.000000	93.730471
554.000000	93.767187
553.000000	93.765091
552.000000	93.723706
551.000000	93.657538
550.000000	93.572790
549.000000	93.454185
548.000000	93.282005
547.000000	93.041351
546.000000	92.697334
545.000000	92.175898
544.000000	91.375111
543.000000	90.194540
542.000000	88.563506
541.000000	86.499320
540.000000	84.207552
539.000000	82.123577
538.000000	80.761621
537.000000	80.456956
536.000000	81.234586
535.000000	82.822334
534.000000	84.764736
533.000000	86.626547
532.000000	88.173186
531.000000	89.378288
530.000000	90.297940
529.000000	90.980360
528.000000	91.470480
527.000000	91.831484
526.000000	92.119963
525.000000	92.359371
524.000000	92.553820
523.000000	92.716321
522.000000	92.862659
521.000000	92.992887
520.000000	93.104509
519.000000	93.211473
518.000000	93.327655
517.000000	93.439749
516.000000	93.522234
515.000000	93.575052
514.000000	93.621691
513.000000	93.683805
512.000000	93.776482
511.000000	93.903753
510.000000	94.037521
509.000000	94.120244
508.000000	94.122587
507.000000	94.083309
506.000000	94.067329
505.000000	94.091951
504.000000	94.128391
503.000000	94.162047
502.000000	94.208973
501.000000	94.276673
500.000000	94.345976
499.000000	94.396114
498.000000	94.422360
497.000000	94.425459
496.000000	94.408183
495.000000	94.387221
494.000000	94.387193
493.000000	94.419934
492.000000	94.476854
491.000000	94.534543
490.000000	94.568703
489.000000	94.565261
488.000000	94.534277
487.000000	94.508600
486.000000	94.515493
485.000000	94.548468
484.000000	94.572966
483.000000	94.555849
482.000000	94.487322
481.000000	94.380176
480.000000	94.249081
479.000000	94.092172
478.000000	93.900786
477.000000	93.684890
476.000000	93.478549
475.000000	93.303969
474.000000	93.135470
473.000000	92.911833
472.000000	92.604018
471.000000	92.239453
470.000000	91.840277
469.000000	91.378862
468.000000	90.829328
467.000000	90.240291
466.000000	89.713576
465.000000	89.313286
464.000000	89.050019
463.000000	88.925723
462.000000	88.935722
461.000000	89.061291
460.000000	89.299580
459.000000	89.664573
458.000000	90.117002
457.000000	90.546467
456.000000	90.909484
455.000000	91.290761
454.000000	91.757149
453.000000	92.239977
452.000000	92.596067
451.000000	92.771368
450.000000	92.846314
449.000000	92.908030
448.000000	92.972141
447.000000	93.022634
446.000000	93.067424
445.000000	93.139377
444.000000	93.277694
443.000000	93.501147
442.000000	93.766739
441.000000	93.979434
440.000000	94.083845
439.000000	94.127610
438.000000	94.199344
437.000000	94.316076
436.000000	94.393293
435.000000	94.353444
434.000000	94.236338
433.000000	94.165214
432.000000	94.224585
431.000000	94.374995
430.000000	94.482537
429.000000	94.455761
428.000000	94.349650
427.000000	94.326615
426.000000	94.481802
425.000000	94.718939
424.000000	94.852516
423.000000	94.792802
422.000000	94.588755
421.000000	94.324298
420.000000	94.073542
419.000000	93.967944
418.000000	94.101204
417.000000	94.359268
416.000000	94.583432
415.000000	94.721216
414.000000	94.782421
413.000000	94.783317
412.000000	94.721157
411.000000	94.568165
410.000000	94.272152
409.000000	93.794221
408.000000	93.188311
407.000000	92.630177
406.000000	92.312970
405.000000	92.323399
404.000000	92.658710
403.000000	93.284107
402.000000	94.105002
401.000000	94.884506
400.000000	95.378619
