PE IR       SUBTECH     SPECTRUM    ASCII       PEDS        4.00        
   -1
18c6KCl-NGB.ASC
23/08/09
14:24:09.00
23/08/09
14:24:09.00
Administrator
Sample 059 By Administrator Date Wednesday, August 09 2023
400.000000
#HDR
-1
-1
#GR
cm-1
%T
1.0
0.0
4000.000000
-1.000000
3601
8
98.488016
29.183437
#DATA
4000.000000	97.188012
3999.000000	97.182142
3998.000000	97.176913
3997.000000	97.197527
3996.000000	97.203359
3995.000000	97.207172
3994.000000	97.207614
3993.000000	97.205544
3992.000000	97.203070
3991.000000	97.202072
3990.000000	97.203318
3989.000000	97.206550
3988.000000	97.210950
3987.000000	97.215440
3986.000000	97.219201
3985.000000	97.222064
3984.000000	97.224456
3983.000000	97.226915
3982.000000	97.229756
3981.000000	97.233366
3980.000000	97.238095
3979.000000	97.243713
3978.000000	97.249184
3977.000000	97.253066
3976.000000	97.254641
3975.000000	97.254665
3974.000000	97.255088
3973.000000	97.257692
3972.000000	97.262608
3971.000000	97.268359
3970.000000	97.272803
3969.000000	97.274425
3968.000000	97.273216
3967.000000	97.270312
3966.000000	97.267199
3965.000000	97.265271
3964.000000	97.265620
3963.000000	97.268373
3962.000000	97.272501
3961.000000	97.276115
3960.000000	97.277556
3959.000000	97.276973
3958.000000	97.275784
3957.000000	97.275366
3956.000000	97.276588
3955.000000	97.279661
3954.000000	97.283911
3953.000000	97.287478
3952.000000	97.288234
3951.000000	97.285696
3950.000000	97.281527
3949.000000	97.278066
3948.000000	97.277207
3947.000000	97.280187
3946.000000	97.287622
3945.000000	97.298614
3944.000000	97.310133
3943.000000	97.318097
3942.000000	97.320721
3941.000000	97.320243
3940.000000	97.319928
3939.000000	97.321597
3938.000000	97.324627
3937.000000	97.327187
3936.000000	97.328257
3935.000000	97.328052
3934.000000	97.328301
3933.000000	97.330776
3932.000000	97.335990
3931.000000	97.343041
3930.000000	97.350344
3929.000000	97.358346
3928.000000	97.368250
3927.000000	97.379375
3926.000000	97.388785
3925.000000	97.392216
3924.000000	97.387902
3923.000000	97.378800
3922.000000	97.370163
3921.000000	97.365382
3920.000000	97.364514
3919.000000	97.366136
3918.000000	97.369985
3917.000000	97.375852
3916.000000	97.382025
3915.000000	97.387012
3914.000000	97.391884
3913.000000	97.398708
3912.000000	97.407217
3911.000000	97.414603
3910.000000	97.418166
3909.000000	97.417898
3908.000000	97.416000
3907.000000	97.413677
3906.000000	97.408567
3905.000000	97.397145
3904.000000	97.380491
3903.000000	97.367963
3902.000000	97.369314
3901.000000	97.384858
3900.000000	97.405193
3899.000000	97.418936
3898.000000	97.421836
3897.000000	97.417552
3896.000000	97.410893
3895.000000	97.406010
3894.000000	97.405748
3893.000000	97.409600
3892.000000	97.412514
3891.000000	97.409091
3890.000000	97.399536
3889.000000	97.388041
3888.000000	97.379408
3887.000000	97.377172
3886.000000	97.380327
3885.000000	97.385134
3884.000000	97.390705
3883.000000	97.401111
3882.000000	97.418085
3881.000000	97.433436
3880.000000	97.435891
3879.000000	97.426081
3878.000000	97.415635
3877.000000	97.415205
3876.000000	97.425748
3875.000000	97.437036
3874.000000	97.436912
3873.000000	97.424362
3872.000000	97.410034
3871.000000	97.403524
3870.000000	97.402699
3869.000000	97.399600
3868.000000	97.393533
3867.000000	97.390223
3866.000000	97.395292
3865.000000	97.406926
3864.000000	97.416533
3863.000000	97.419016
3862.000000	97.417130
3861.000000	97.415475
3860.000000	97.415750
3859.000000	97.416616
3858.000000	97.415744
3857.000000	97.412371
3856.000000	97.407621
3855.000000	97.404861
3854.000000	97.401003
3853.000000	97.397901
3852.000000	97.401375
3851.000000	97.411141
3850.000000	97.420965
3849.000000	97.428352
3848.000000	97.432228
3847.000000	97.433517
3846.000000	97.433783
3845.000000	97.432894
3844.000000	97.427984
3843.000000	97.418673
3842.000000	97.409607
3841.000000	97.407737
3840.000000	97.416020
3839.000000	97.428772
3838.000000	97.437080
3837.000000	97.437256
3836.000000	97.432419
3835.000000	97.428193
3834.000000	97.428334
3833.000000	97.432835
3832.000000	97.438130
3831.000000	97.440896
3830.000000	97.442364
3829.000000	97.446726
3828.000000	97.454161
3827.000000	97.458365
3826.000000	97.452684
3825.000000	97.437646
3824.000000	97.422849
3823.000000	97.420274
3822.000000	97.430094
3821.000000	97.438114
3820.000000	97.436695
3819.000000	97.433718
3818.000000	97.438060
3817.000000	97.450735
3816.000000	97.463197
3815.000000	97.468800
3814.000000	97.469445
3813.000000	97.469586
3812.000000	97.470048
3811.000000	97.469222
3810.000000	97.466859
3809.000000	97.465125
3808.000000	97.463436
3807.000000	97.457230
3806.000000	97.444403
3805.000000	97.430232
3804.000000	97.424391
3803.000000	97.434119
3802.000000	97.454372
3801.000000	97.469759
3800.000000	97.473653
3799.000000	97.471606
3798.000000	97.470333
3797.000000	97.472123
3796.000000	97.475551
3795.000000	97.479961
3794.000000	97.486275
3793.000000	97.494274
3792.000000	97.501889
3791.000000	97.506289
3790.000000	97.505911
3789.000000	97.502214
3788.000000	97.498926
3787.000000	97.499537
3786.000000	97.504220
3785.000000	97.509272
3784.000000	97.510417
3783.000000	97.507374
3782.000000	97.503644
3781.000000	97.501906
3780.000000	97.500279
3779.000000	97.496273
3778.000000	97.492109
3777.000000	97.491765
3776.000000	97.495196
3775.000000	97.498377
3774.000000	97.497336
3773.000000	97.491070
3772.000000	97.481479
3771.000000	97.471346
3770.000000	97.462827
3769.000000	97.457838
3768.000000	97.458493
3767.000000	97.464397
3766.000000	97.471796
3765.000000	97.476289
3764.000000	97.476016
3763.000000	97.473771
3762.000000	97.474233
3761.000000	97.479701
3760.000000	97.486788
3759.000000	97.489535
3758.000000	97.485483
3757.000000	97.475673
3756.000000	97.461079
3755.000000	97.442956
3754.000000	97.423442
3753.000000	97.405917
3752.000000	97.393285
3751.000000	97.385547
3750.000000	97.382798
3749.000000	97.385043
3748.000000	97.391750
3747.000000	97.403646
3746.000000	97.422134
3745.000000	97.439115
3744.000000	97.443536
3743.000000	97.436982
3742.000000	97.427020
3741.000000	97.417014
3740.000000	97.408584
3739.000000	97.403199
3738.000000	97.404197
3737.000000	97.413689
3736.000000	97.427446
3735.000000	97.437473
3734.000000	97.441629
3733.000000	97.445933
3732.000000	97.453449
3731.000000	97.460195
3730.000000	97.462577
3729.000000	97.461561
3728.000000	97.461171
3727.000000	97.463955
3726.000000	97.468400
3725.000000	97.472155
3724.000000	97.475724
3723.000000	97.480522
3722.000000	97.485955
3721.000000	97.490937
3720.000000	97.495675
3719.000000	97.500450
3718.000000	97.504874
3717.000000	97.506916
3716.000000	97.504201
3715.000000	97.497242
3714.000000	97.490913
3713.000000	97.490983
3712.000000	97.496345
3711.000000	97.501069
3710.000000	97.502776
3709.000000	97.503314
3708.000000	97.505042
3707.000000	97.508066
3706.000000	97.512000
3705.000000	97.517755
3704.000000	97.526360
3703.000000	97.537180
3702.000000	97.546434
3701.000000	97.550450
3700.000000	97.549440
3699.000000	97.546169
3698.000000	97.542941
3697.000000	97.540028
3696.000000	97.535603
3695.000000	97.529029
3694.000000	97.522362
3693.000000	97.518351
3692.000000	97.516005
3691.000000	97.511529
3690.000000	97.503415
3689.000000	97.496312
3688.000000	97.495667
3687.000000	97.501389
3686.000000	97.510017
3685.000000	97.518476
3684.000000	97.525097
3683.000000	97.529660
3682.000000	97.532622
3681.000000	97.532144
3680.000000	97.523656
3679.000000	97.505605
3678.000000	97.483583
3677.000000	97.469495
3676.000000	97.465714
3675.000000	97.461895
3674.000000	97.454171
3673.000000	97.450071
3672.000000	97.456062
3671.000000	97.473199
3670.000000	97.491235
3669.000000	97.498369
3668.000000	97.495957
3667.000000	97.492023
3666.000000	97.491133
3665.000000	97.494369
3664.000000	97.500016
3663.000000	97.504856
3662.000000	97.505433
3661.000000	97.498637
3660.000000	97.483496
3659.000000	97.463276
3658.000000	97.444917
3657.000000	97.433872
3656.000000	97.428700
3655.000000	97.424198
3654.000000	97.417555
3653.000000	97.409156
3652.000000	97.399832
3651.000000	97.388359
3650.000000	97.375833
3649.000000	97.369388
3648.000000	97.371299
3647.000000	97.375793
3646.000000	97.378404
3645.000000	97.379765
3644.000000	97.381622
3643.000000	97.384304
3642.000000	97.386769
3641.000000	97.386709
3640.000000	97.382500
3639.000000	97.373607
3638.000000	97.360844
3637.000000	97.345968
3636.000000	97.330090
3635.000000	97.312876
3634.000000	97.292321
3633.000000	97.266781
3632.000000	97.237388
3631.000000	97.208923
3630.000000	97.185528
3629.000000	97.165484
3628.000000	97.144810
3627.000000	97.125494
3626.000000	97.109573
3625.000000	97.094963
3624.000000	97.079505
3623.000000	97.062691
3622.000000	97.045955
3621.000000	97.029793
3620.000000	97.011028
3619.000000	96.985303
3618.000000	96.954965
3617.000000	96.925814
3616.000000	96.899807
3615.000000	96.874766
3614.000000	96.846999
3613.000000	96.813443
3612.000000	96.775033
3611.000000	96.737571
3610.000000	96.708220
3609.000000	96.689780
3608.000000	96.676042
3607.000000	96.657923
3606.000000	96.632369
3605.000000	96.601122
3604.000000	96.566640
3603.000000	96.529602
3602.000000	96.490312
3601.000000	96.449825
3600.000000	96.408992
3599.000000	96.367235
3598.000000	96.323378
3597.000000	96.274621
3596.000000	96.217294
3595.000000	96.150604
3594.000000	96.078372
3593.000000	96.006960
3592.000000	95.940798
3591.000000	95.881256
3590.000000	95.828360
3589.000000	95.783813
3588.000000	95.751066
3587.000000	95.732753
3586.000000	95.728814
3585.000000	95.738614
3584.000000	95.759947
3583.000000	95.789448
3582.000000	95.823667
3581.000000	95.859083
3580.000000	95.891332
3579.000000	95.917359
3578.000000	95.936538
3577.000000	95.950028
3576.000000	95.958504
3575.000000	95.962487
3574.000000	95.962701
3573.000000	95.959177
3572.000000	95.951425
3571.000000	95.939415
3570.000000	95.924297
3569.000000	95.907766
3568.000000	95.892361
3567.000000	95.879170
3566.000000	95.866206
3565.000000	95.851564
3564.000000	95.836204
3563.000000	95.822370
3562.000000	95.811429
3561.000000	95.802399
3560.000000	95.792161
3559.000000	95.778354
3558.000000	95.761083
3557.000000	95.741452
3556.000000	95.719856
3555.000000	95.696827
3554.000000	95.673833
3553.000000	95.651176
3552.000000	95.626868
3551.000000	95.599573
3550.000000	95.570807
3549.000000	95.542874
3548.000000	95.516548
3547.000000	95.492181
3546.000000	95.470930
3545.000000	95.453283
3544.000000	95.437680
3543.000000	95.422543
3542.000000	95.407270
3541.000000	95.391273
3540.000000	95.373319
3539.000000	95.352403
3538.000000	95.329377
3537.000000	95.305600
3536.000000	95.281940
3535.000000	95.258981
3534.000000	95.237868
3533.000000	95.218985
3532.000000	95.200638
3531.000000	95.180049
3530.000000	95.155382
3529.000000	95.126603
3528.000000	95.095391
3527.000000	95.065112
3526.000000	95.039454
3525.000000	95.019994
3524.000000	95.004917
3523.000000	94.991138
3522.000000	94.977229
3521.000000	94.963465
3520.000000	94.949752
3519.000000	94.934949
3518.000000	94.918446
3517.000000	94.900739
3516.000000	94.882572
3515.000000	94.864200
3514.000000	94.844993
3513.000000	94.823535
3512.000000	94.798891
3511.000000	94.772193
3510.000000	94.746529
3509.000000	94.723958
3508.000000	94.703700
3507.000000	94.683495
3506.000000	94.661901
3505.000000	94.638509
3504.000000	94.613671
3503.000000	94.588534
3502.000000	94.563953
3501.000000	94.539474
3500.000000	94.513707
3499.000000	94.486324
3498.000000	94.458333
3497.000000	94.430338
3496.000000	94.401301
3495.000000	94.370268
3494.000000	94.337873
3493.000000	94.304633
3492.000000	94.269077
3491.000000	94.228964
3490.000000	94.183793
3489.000000	94.135204
3488.000000	94.085517
3487.000000	94.037005
3486.000000	93.991287
3485.000000	93.947211
3484.000000	93.900083
3483.000000	93.845175
3482.000000	93.782938
3481.000000	93.718889
3480.000000	93.658143
3479.000000	93.601463
3478.000000	93.546293
3477.000000	93.489587
3476.000000	93.429026
3475.000000	93.363547
3474.000000	93.293850
3473.000000	93.221741
3472.000000	93.148539
3471.000000	93.074336
3470.000000	92.998489
3469.000000	92.920520
3468.000000	92.840733
3467.000000	92.760496
3466.000000	92.681486
3465.000000	92.603738
3464.000000	92.524787
3463.000000	92.441702
3462.000000	92.354091
3461.000000	92.264293
3460.000000	92.174820
3459.000000	92.086583
3458.000000	91.999481
3457.000000	91.913069
3456.000000	91.826792
3455.000000	91.739988
3454.000000	91.652355
3453.000000	91.564050
3452.000000	91.475072
3451.000000	91.384780
3450.000000	91.291656
3449.000000	91.194421
3448.000000	91.094424
3447.000000	90.996654
3446.000000	90.906151
3445.000000	90.823287
3444.000000	90.744088
3443.000000	90.665229
3442.000000	90.587100
3441.000000	90.511193
3440.000000	90.437049
3439.000000	90.363559
3438.000000	90.292216
3437.000000	90.226835
3436.000000	90.170604
3435.000000	90.124511
3434.000000	90.087900
3433.000000	90.059383
3432.000000	90.037679
3431.000000	90.023282
3430.000000	90.018589
3429.000000	90.025188
3428.000000	90.041658
3427.000000	90.065376
3426.000000	90.095665
3425.000000	90.133826
3424.000000	90.180314
3423.000000	90.233242
3422.000000	90.289898
3421.000000	90.348716
3420.000000	90.410115
3419.000000	90.475770
3418.000000	90.546796
3417.000000	90.622300
3416.000000	90.699475
3415.000000	90.775609
3414.000000	90.849559
3413.000000	90.921386
3412.000000	90.991806
3411.000000	91.062246
3410.000000	91.133918
3409.000000	91.205831
3408.000000	91.274666
3407.000000	91.337652
3406.000000	91.394974
3405.000000	91.448338
3404.000000	91.498542
3403.000000	91.545536
3402.000000	91.589813
3401.000000	91.632212
3400.000000	91.672547
3399.000000	91.709800
3398.000000	91.743299
3397.000000	91.772655
3396.000000	91.797103
3395.000000	91.816211
3394.000000	91.831093
3393.000000	91.843844
3392.000000	91.855514
3391.000000	91.865488
3390.000000	91.872717
3389.000000	91.876745
3388.000000	91.877598
3387.000000	91.875264
3386.000000	91.869406
3385.000000	91.859106
3384.000000	91.843572
3383.000000	91.823750
3382.000000	91.802588
3381.000000	91.782972
3380.000000	91.765711
3379.000000	91.750209
3378.000000	91.736302
3377.000000	91.724316
3376.000000	91.713685
3375.000000	91.702812
3374.000000	91.690453
3373.000000	91.676641
3372.000000	91.662733
3371.000000	91.651325
3370.000000	91.645608
3369.000000	91.647623
3368.000000	91.657270
3367.000000	91.673701
3366.000000	91.697076
3365.000000	91.727842
3364.000000	91.765371
3363.000000	91.808693
3362.000000	91.858510
3361.000000	91.916650
3360.000000	91.983252
3359.000000	92.055740
3358.000000	92.130420
3357.000000	92.204655
3356.000000	92.277868
3355.000000	92.351410
3354.000000	92.427212
3353.000000	92.505479
3352.000000	92.583963
3351.000000	92.660298
3350.000000	92.734260
3349.000000	92.806453
3348.000000	92.875797
3347.000000	92.939784
3346.000000	92.997189
3345.000000	93.048923
3344.000000	93.096060
3343.000000	93.138554
3342.000000	93.176112
3341.000000	93.209267
3340.000000	93.239426
3339.000000	93.268320
3338.000000	93.297379
3337.000000	93.326815
3336.000000	93.355398
3335.000000	93.381727
3334.000000	93.405335
3333.000000	93.426155
3332.000000	93.443823
3331.000000	93.458479
3330.000000	93.471726
3329.000000	93.485807
3328.000000	93.502491
3327.000000	93.523381
3326.000000	93.550278
3325.000000	93.583744
3324.000000	93.622038
3323.000000	93.663000
3322.000000	93.706614
3321.000000	93.754788
3320.000000	93.808915
3319.000000	93.868800
3318.000000	93.933127
3317.000000	93.999575
3316.000000	94.065136
3315.000000	94.128009
3314.000000	94.189234
3313.000000	94.251277
3312.000000	94.315032
3311.000000	94.379171
3310.000000	94.441918
3309.000000	94.502413
3308.000000	94.560594
3307.000000	94.616748
3306.000000	94.670751
3305.000000	94.721077
3304.000000	94.765585
3303.000000	94.804375
3302.000000	94.841067
3301.000000	94.879687
3300.000000	94.920866
3299.000000	94.962315
3298.000000	95.001922
3297.000000	95.038850
3296.000000	95.072427
3295.000000	95.102241
3294.000000	95.129361
3293.000000	95.155627
3292.000000	95.181608
3291.000000	95.206456
3290.000000	95.229560
3289.000000	95.251148
3288.000000	95.271525
3287.000000	95.291131
3286.000000	95.310926
3285.000000	95.331135
3284.000000	95.349786
3283.000000	95.364044
3282.000000	95.373168
3281.000000	95.378956
3280.000000	95.383347
3279.000000	95.386893
3278.000000	95.389263
3277.000000	95.389898
3276.000000	95.387944
3275.000000	95.382607
3274.000000	95.373831
3273.000000	95.361662
3272.000000	95.345642
3271.000000	95.325975
3270.000000	95.304749
3269.000000	95.284582
3268.000000	95.266146
3267.000000	95.248430
3266.000000	95.231152
3265.000000	95.215550
3264.000000	95.202736
3263.000000	95.192963
3262.000000	95.186514
3261.000000	95.183902
3260.000000	95.185244
3259.000000	95.190435
3258.000000	95.200162
3257.000000	95.215035
3256.000000	95.233633
3255.000000	95.253004
3254.000000	95.271602
3253.000000	95.290406
3252.000000	95.310675
3251.000000	95.331985
3250.000000	95.352882
3249.000000	95.372306
3248.000000	95.389695
3247.000000	95.404815
3246.000000	95.418226
3245.000000	95.431172
3244.000000	95.444301
3243.000000	95.456996
3242.000000	95.468032
3241.000000	95.476295
3240.000000	95.480926
3239.000000	95.481797
3238.000000	95.480139
3237.000000	95.477640
3236.000000	95.474661
3235.000000	95.469900
3234.000000	95.462339
3233.000000	95.452749
3232.000000	95.443117
3231.000000	95.435235
3230.000000	95.429875
3229.000000	95.426772
3228.000000	95.425261
3227.000000	95.425474
3226.000000	95.428717
3225.000000	95.436215
3224.000000	95.447779
3223.000000	95.462566
3222.000000	95.480724
3221.000000	95.502789
3220.000000	95.527786
3219.000000	95.553453
3218.000000	95.578830
3217.000000	95.605422
3216.000000	95.635047
3215.000000	95.667616
3214.000000	95.701511
3213.000000	95.735224
3212.000000	95.767995
3211.000000	95.799477
3210.000000	95.829478
3209.000000	95.857857
3208.000000	95.884522
3207.000000	95.909685
3206.000000	95.934008
3205.000000	95.958117
3204.000000	95.982248
3203.000000	96.006832
3202.000000	96.032825
3201.000000	96.060678
3200.000000	96.089395
3199.000000	96.117472
3198.000000	96.144426
3197.000000	96.170426
3196.000000	96.195068
3195.000000	96.217870
3194.000000	96.239751
3193.000000	96.262422
3192.000000	96.286172
3191.000000	96.309497
3190.000000	96.331154
3189.000000	96.351403
3188.000000	96.370847
3187.000000	96.389246
3186.000000	96.406049
3185.000000	96.421376
3184.000000	96.435985
3183.000000	96.450676
3182.000000	96.465778
3181.000000	96.480794
3180.000000	96.494835
3179.000000	96.508151
3178.000000	96.522773
3177.000000	96.540406
3176.000000	96.559932
3175.000000	96.578038
3174.000000	96.592546
3173.000000	96.604131
3172.000000	96.615038
3171.000000	96.626900
3170.000000	96.639774
3169.000000	96.652366
3168.000000	96.663163
3167.000000	96.672282
3166.000000	96.681949
3165.000000	96.694169
3164.000000	96.708158
3163.000000	96.721284
3162.000000	96.732483
3161.000000	96.743399
3160.000000	96.755876
3159.000000	96.769518
3158.000000	96.782143
3157.000000	96.791978
3156.000000	96.799159
3155.000000	96.805660
3154.000000	96.813711
3153.000000	96.823798
3152.000000	96.834482
3151.000000	96.844551
3150.000000	96.854511
3149.000000	96.865177
3148.000000	96.875756
3147.000000	96.884730
3146.000000	96.892057
3145.000000	96.899002
3144.000000	96.906185
3143.000000	96.913145
3142.000000	96.919801
3141.000000	96.926897
3140.000000	96.934940
3139.000000	96.943802
3138.000000	96.953274
3137.000000	96.963104
3136.000000	96.972572
3135.000000	96.981070
3134.000000	96.988858
3133.000000	96.996200
3132.000000	97.002335
3131.000000	97.006930
3130.000000	97.011934
3129.000000	97.020126
3128.000000	97.031708
3127.000000	97.044040
3126.000000	97.054664
3125.000000	97.062882
3124.000000	97.068453
3123.000000	97.070934
3122.000000	97.071125
3121.000000	97.071448
3120.000000	97.074116
3119.000000	97.079786
3118.000000	97.087976
3117.000000	97.097472
3116.000000	97.106205
3115.000000	97.112296
3114.000000	97.115724
3113.000000	97.118008
3112.000000	97.120371
3111.000000	97.123466
3110.000000	97.128340
3109.000000	97.135747
3108.000000	97.144387
3107.000000	97.151748
3106.000000	97.156755
3105.000000	97.160336
3104.000000	97.163326
3103.000000	97.165642
3102.000000	97.167556
3101.000000	97.169855
3100.000000	97.172366
3099.000000	97.173941
3098.000000	97.174480
3097.000000	97.175483
3096.000000	97.178067
3095.000000	97.181738
3094.000000	97.185621
3093.000000	97.189486
3092.000000	97.192947
3091.000000	97.194976
3090.000000	97.194990
3089.000000	97.193522
3088.000000	97.191186
3087.000000	97.188025
3086.000000	97.184333
3085.000000	97.181044
3084.000000	97.178836
3083.000000	97.177691
3082.000000	97.177797
3081.000000	97.179577
3080.000000	97.182337
3079.000000	97.183997
3078.000000	97.183264
3077.000000	97.181355
3076.000000	97.180940
3075.000000	97.183759
3074.000000	97.189303
3073.000000	97.195025
3072.000000	97.197550
3071.000000	97.195029
3070.000000	97.188952
3069.000000	97.183217
3068.000000	97.180946
3067.000000	97.182568
3066.000000	97.186842
3065.000000	97.192579
3064.000000	97.198807
3063.000000	97.204173
3062.000000	97.207407
3061.000000	97.208257
3060.000000	97.207671
3059.000000	97.206980
3058.000000	97.207046
3057.000000	97.207889
3056.000000	97.209079
3055.000000	97.210663
3054.000000	97.213311
3053.000000	97.217201
3052.000000	97.221067
3051.000000	97.223250
3050.000000	97.223627
3049.000000	97.223708
3048.000000	97.224924
3047.000000	97.227606
3046.000000	97.231589
3045.000000	97.236699
3044.000000	97.242217
3043.000000	97.246859
3042.000000	97.249874
3041.000000	97.251670
3040.000000	97.253100
3039.000000	97.254485
3038.000000	97.255692
3037.000000	97.256529
3036.000000	97.256930
3035.000000	97.257373
3034.000000	97.259316
3033.000000	97.264282
3032.000000	97.272008
3031.000000	97.279925
3030.000000	97.285248
3029.000000	97.287278
3028.000000	97.287379
3027.000000	97.287309
3026.000000	97.287871
3025.000000	97.288793
3024.000000	97.289314
3023.000000	97.288859
3022.000000	97.286985
3021.000000	97.282913
3020.000000	97.275902
3019.000000	97.266841
3018.000000	97.258911
3017.000000	97.255392
3016.000000	97.256704
3015.000000	97.260241
3014.000000	97.263156
3013.000000	97.264596
3012.000000	97.265420
3011.000000	97.266656
3010.000000	97.268342
3009.000000	97.269068
3008.000000	97.266510
3007.000000	97.259203
3006.000000	97.247926
3005.000000	97.234830
3004.000000	97.221079
3003.000000	97.206058
3002.000000	97.188768
3001.000000	97.169038
3000.000000	97.147194
2999.000000	97.123458
2998.000000	97.098222
2997.000000	97.072091
2996.000000	97.044989
2995.000000	97.015518
2994.000000	96.981615
2993.000000	96.942007
2992.000000	96.897344
2991.000000	96.850443
2990.000000	96.805134
2989.000000	96.763834
2988.000000	96.726044
2987.000000	96.689662
2986.000000	96.653698
2985.000000	96.618919
2984.000000	96.585896
2983.000000	96.553286
2982.000000	96.518188
2981.000000	96.477360
2980.000000	96.428439
2979.000000	96.371190
2978.000000	96.308067
2977.000000	96.242603
2976.000000	96.177059
2975.000000	96.112390
2974.000000	96.050086
2973.000000	95.992136
2972.000000	95.938426
2971.000000	95.885121
2970.000000	95.826396
2969.000000	95.756858
2968.000000	95.671722
2967.000000	95.566475
2966.000000	95.437686
2965.000000	95.284068
2964.000000	95.106021
2963.000000	94.904380
2962.000000	94.680837
2961.000000	94.437979
2960.000000	94.177827
2959.000000	93.899792
2958.000000	93.600506
2957.000000	93.275981
2956.000000	92.923576
2955.000000	92.544568
2954.000000	92.147399
2953.000000	91.750319
2952.000000	91.379746
2951.000000	91.062530
2950.000000	90.816792
2949.000000	90.645533
2948.000000	90.539278
2947.000000	90.484935
2946.000000	90.474734
2945.000000	90.506999
2944.000000	90.579567
2943.000000	90.684111
2942.000000	90.805433
2941.000000	90.926064
2940.000000	91.030959
2939.000000	91.111249
2938.000000	91.165389
2937.000000	91.196847
2936.000000	91.210866
2935.000000	91.212457
2934.000000	91.205862
2933.000000	91.192099
2932.000000	91.165813
2931.000000	91.115848
2930.000000	91.030427
2929.000000	90.902797
2928.000000	90.732587
2927.000000	90.525009
2926.000000	90.289806
2925.000000	90.038828
2924.000000	89.781367
2923.000000	89.519513
2922.000000	89.248195
2921.000000	88.959414
2920.000000	88.647319
2919.000000	88.311560
2918.000000	87.957805
2917.000000	87.595562
2916.000000	87.234206
2915.000000	86.879020
2914.000000	86.528767
2913.000000	86.174652
2912.000000	85.802056
2911.000000	85.395818
2910.000000	84.945491
2909.000000	84.447064
2908.000000	83.900620
2907.000000	83.308523
2906.000000	82.676367
2905.000000	82.014581
2904.000000	81.339526
2903.000000	80.672279
2902.000000	80.034941
2901.000000	79.443806
2900.000000	78.902802
2899.000000	78.407563
2898.000000	77.954477
2897.000000	77.548317
2896.000000	77.202288
2895.000000	76.935750
2894.000000	76.771521
2893.000000	76.729699
2892.000000	76.818928
2891.000000	77.030256
2890.000000	77.338666
2889.000000	77.708820
2888.000000	78.102802
2887.000000	78.486965
2886.000000	78.836510
2885.000000	79.134961
2884.000000	79.369019
2883.000000	79.526590
2882.000000	79.598294
2881.000000	79.581681
2880.000000	79.484971
2879.000000	79.329600
2878.000000	79.148516
2877.000000	78.979529
2876.000000	78.856599
2875.000000	78.804065
2874.000000	78.835113
2873.000000	78.948901
2872.000000	79.128595
2871.000000	79.345039
2870.000000	79.565421
2869.000000	79.760143
2868.000000	79.905759
2867.000000	79.987542
2866.000000	80.002898
2865.000000	79.962575
2864.000000	79.887230
2863.000000	79.802907
2862.000000	79.737288
2861.000000	79.714337
2860.000000	79.747449
2859.000000	79.837671
2858.000000	79.978415
2857.000000	80.162343
2856.000000	80.385484
2855.000000	80.647380
2854.000000	80.948134
2853.000000	81.282358
2852.000000	81.633593
2851.000000	81.974825
2850.000000	82.277580
2849.000000	82.522750
2848.000000	82.708069
2847.000000	82.849765
2846.000000	82.979505
2845.000000	83.136528
2844.000000	83.358418
2843.000000	83.672799
2842.000000	84.091385
2841.000000	84.605806
2840.000000	85.187271
2839.000000	85.792653
2838.000000	86.375867
2837.000000	86.898186
2836.000000	87.333101
2835.000000	87.667755
2834.000000	87.901612
2833.000000	88.042314
2832.000000	88.101493
2831.000000	88.092384
2830.000000	88.029875
2829.000000	87.930558
2828.000000	87.811850
2827.000000	87.691631
2826.000000	87.589164
2825.000000	87.522574
2824.000000	87.503734
2823.000000	87.535931
2822.000000	87.615747
2821.000000	87.736378
2820.000000	87.888871
2819.000000	88.062626
2818.000000	88.247045
2817.000000	88.433155
2816.000000	88.614192
2815.000000	88.787382
2814.000000	88.956646
2813.000000	89.133188
2812.000000	89.331890
2811.000000	89.565406
2810.000000	89.839386
2809.000000	90.149508
2808.000000	90.481539
2807.000000	90.815745
2806.000000	91.133438
2805.000000	91.420876
2804.000000	91.669110
2803.000000	91.872612
2802.000000	92.030205
2801.000000	92.146410
2800.000000	92.229849
2799.000000	92.290029
2798.000000	92.334800
2797.000000	92.369025
2796.000000	92.394646
2795.000000	92.412029
2794.000000	92.422520
2793.000000	92.430835
2792.000000	92.445367
2791.000000	92.477106
2790.000000	92.536772
2789.000000	92.629383
2788.000000	92.749422
2787.000000	92.881768
2786.000000	93.008920
2785.000000	93.118767
2784.000000	93.208036
2783.000000	93.282270
2782.000000	93.354111
2781.000000	93.438635
2780.000000	93.545902
2779.000000	93.676217
2778.000000	93.821813
2777.000000	93.972184
2776.000000	94.117463
2775.000000	94.249478
2774.000000	94.363331
2773.000000	94.459057
2772.000000	94.540658
2771.000000	94.613080
2770.000000	94.680117
2769.000000	94.744187
2768.000000	94.806062
2767.000000	94.863940
2766.000000	94.913984
2765.000000	94.952437
2764.000000	94.977315
2763.000000	94.989063
2762.000000	94.990399
2761.000000	94.985453
2760.000000	94.977585
2759.000000	94.967321
2758.000000	94.952829
2757.000000	94.932055
2756.000000	94.904007
2755.000000	94.868148
2754.000000	94.823101
2753.000000	94.766170
2752.000000	94.693324
2751.000000	94.600390
2750.000000	94.485972
2749.000000	94.354575
2748.000000	94.217976
2747.000000	94.093691
2746.000000	94.000294
2745.000000	93.951015
2744.000000	93.948735
2743.000000	93.985934
2742.000000	94.050695
2741.000000	94.133254
2740.000000	94.228038
2739.000000	94.332089
2738.000000	94.442420
2737.000000	94.554737
2736.000000	94.663694
2735.000000	94.763824
2734.000000	94.851465
2733.000000	94.926213
2732.000000	94.990421
2731.000000	95.047148
2730.000000	95.098084
2729.000000	95.142084
2728.000000	95.175308
2727.000000	95.193439
2726.000000	95.195222
2725.000000	95.185285
2724.000000	95.173804
2723.000000	95.173034
2722.000000	95.192179
2721.000000	95.232590
2720.000000	95.286474
2719.000000	95.341211
2718.000000	95.386271
2717.000000	95.417007
2716.000000	95.433351
2715.000000	95.436941
2714.000000	95.429729
2713.000000	95.413740
2712.000000	95.390957
2711.000000	95.364397
2710.000000	95.339923
2709.000000	95.324849
2708.000000	95.322896
2707.000000	95.331606
2706.000000	95.346916
2705.000000	95.369823
2704.000000	95.407380
2703.000000	95.467028
2702.000000	95.550526
2701.000000	95.652427
2700.000000	95.762046
2699.000000	95.867129
2698.000000	95.957946
2697.000000	96.029705
2696.000000	96.081764
2695.000000	96.115624
2694.000000	96.134416
2693.000000	96.143321
2692.000000	96.148055
2691.000000	96.151625
2690.000000	96.153926
2689.000000	96.155512
2688.000000	96.160912
2687.000000	96.177178
2686.000000	96.208722
2685.000000	96.253557
2684.000000	96.304606
2683.000000	96.354872
2682.000000	96.401428
2681.000000	96.445077
2680.000000	96.487143
2679.000000	96.527663
2678.000000	96.566216
2677.000000	96.602593
2676.000000	96.635815
2675.000000	96.663890
2674.000000	96.685809
2673.000000	96.703012
2672.000000	96.717975
2671.000000	96.731758
2670.000000	96.743757
2669.000000	96.753131
2668.000000	96.759287
2667.000000	96.762069
2666.000000	96.762966
2665.000000	96.765736
2664.000000	96.774207
2663.000000	96.789160
2662.000000	96.808139
2661.000000	96.827830
2660.000000	96.845579
2659.000000	96.859354
2658.000000	96.868277
2657.000000	96.873540
2656.000000	96.877253
2655.000000	96.879798
2654.000000	96.879618
2653.000000	96.876168
2652.000000	96.872123
2651.000000	96.871792
2650.000000	96.877584
2649.000000	96.888172
2648.000000	96.899468
2647.000000	96.907314
2646.000000	96.909988
2645.000000	96.908871
2644.000000	96.906961
2643.000000	96.907044
2642.000000	96.910907
2641.000000	96.918733
2640.000000	96.928065
2639.000000	96.934486
2638.000000	96.935234
2637.000000	96.932247
2636.000000	96.930621
2635.000000	96.934107
2634.000000	96.942790
2633.000000	96.954165
2632.000000	96.964829
2631.000000	96.971510
2630.000000	96.972676
2629.000000	96.970013
2628.000000	96.967410
2627.000000	96.967965
2626.000000	96.972222
2625.000000	96.978699
2624.000000	96.985130
2623.000000	96.989779
2622.000000	96.992868
2621.000000	96.996419
2620.000000	97.001451
2619.000000	97.005872
2618.000000	97.006546
2617.000000	97.002942
2616.000000	96.997317
2615.000000	96.991939
2614.000000	96.987965
2613.000000	96.986309
2612.000000	96.987010
2611.000000	96.987809
2610.000000	96.985821
2609.000000	96.981202
2608.000000	96.977179
2607.000000	96.976013
2606.000000	96.977036
2605.000000	96.979104
2604.000000	96.982627
2603.000000	96.987829
2602.000000	96.992856
2601.000000	96.995223
2600.000000	96.994322
2599.000000	96.991691
2598.000000	96.989594
2597.000000	96.990004
2596.000000	96.993808
2595.000000	97.000107
2594.000000	97.006833
2593.000000	97.012669
2592.000000	97.018023
2591.000000	97.023995
2590.000000	97.030968
2589.000000	97.038329
2588.000000	97.045248
2587.000000	97.052019
2586.000000	97.060754
2585.000000	97.073827
2584.000000	97.090794
2583.000000	97.107882
2582.000000	97.121320
2581.000000	97.130102
2580.000000	97.134623
2579.000000	97.134727
2578.000000	97.131513
2577.000000	97.129440
2576.000000	97.133402
2575.000000	97.143629
2574.000000	97.155701
2573.000000	97.165482
2572.000000	97.172234
2571.000000	97.177467
2570.000000	97.182981
2569.000000	97.189699
2568.000000	97.196278
2567.000000	97.199180
2566.000000	97.196186
2565.000000	97.189495
2564.000000	97.183365
2563.000000	97.179873
2562.000000	97.179263
2561.000000	97.182897
2560.000000	97.191800
2559.000000	97.202703
2558.000000	97.209693
2557.000000	97.210925
2556.000000	97.210642
2555.000000	97.213522
2554.000000	97.219669
2553.000000	97.226039
2552.000000	97.230277
2551.000000	97.232087
2550.000000	97.232677
2549.000000	97.233755
2548.000000	97.235914
2547.000000	97.238378
2546.000000	97.241717
2545.000000	97.248970
2544.000000	97.260804
2543.000000	97.271084
2542.000000	97.272096
2541.000000	97.264839
2540.000000	97.259221
2539.000000	97.262543
2538.000000	97.271297
2537.000000	97.276866
2536.000000	97.276111
2535.000000	97.273754
2534.000000	97.276094
2533.000000	97.284579
2532.000000	97.294534
2531.000000	97.299025
2530.000000	97.294790
2529.000000	97.284937
2528.000000	97.275129
2527.000000	97.268070
2526.000000	97.263677
2525.000000	97.262956
2524.000000	97.267545
2523.000000	97.275053
2522.000000	97.279099
2521.000000	97.275656
2520.000000	97.266751
2519.000000	97.257060
2518.000000	97.249838
2517.000000	97.247149
2516.000000	97.250298
2515.000000	97.257769
2514.000000	97.265173
2513.000000	97.269327
2512.000000	97.270612
2511.000000	97.270217
2510.000000	97.267481
2509.000000	97.261708
2508.000000	97.254554
2507.000000	97.248795
2506.000000	97.245991
2505.000000	97.246057
2504.000000	97.247565
2503.000000	97.248306
2502.000000	97.248014
2501.000000	97.250820
2500.000000	97.261601
2499.000000	97.278587
2498.000000	97.293091
2497.000000	97.298772
2496.000000	97.298474
2495.000000	97.299841
2494.000000	97.306541
2493.000000	97.316516
2492.000000	97.326598
2491.000000	97.335630
2490.000000	97.344046
2489.000000	97.352985
2488.000000	97.363500
2487.000000	97.374780
2486.000000	97.383431
2485.000000	97.386087
2484.000000	97.382856
2483.000000	97.377506
2482.000000	97.374598
2481.000000	97.376294
2480.000000	97.380747
2479.000000	97.383248
2478.000000	97.380130
2477.000000	97.372146
2476.000000	97.363284
2475.000000	97.356524
2474.000000	97.352077
2473.000000	97.349203
2472.000000	97.347539
2471.000000	97.346622
2470.000000	97.346229
2469.000000	97.347270
2468.000000	97.350207
2467.000000	97.352708
2466.000000	97.351761
2465.000000	97.348664
2464.000000	97.348869
2463.000000	97.355718
2462.000000	97.366796
2461.000000	97.377666
2460.000000	97.386708
2459.000000	97.394762
2458.000000	97.402531
2457.000000	97.410373
2456.000000	97.418982
2455.000000	97.428023
2454.000000	97.435033
2453.000000	97.437375
2452.000000	97.434919
2451.000000	97.429991
2450.000000	97.425417
2449.000000	97.423179
2448.000000	97.423909
2447.000000	97.427019
2446.000000	97.431884
2445.000000	97.438626
2444.000000	97.446589
2443.000000	97.452552
2442.000000	97.452719
2441.000000	97.446992
2440.000000	97.439675
2439.000000	97.435473
2438.000000	97.436055
2437.000000	97.440291
2436.000000	97.445979
2435.000000	97.451084
2434.000000	97.454906
2433.000000	97.458046
2432.000000	97.460217
2431.000000	97.459286
2430.000000	97.454666
2429.000000	97.450360
2428.000000	97.451222
2427.000000	97.456364
2426.000000	97.459680
2425.000000	97.457417
2424.000000	97.452598
2423.000000	97.451354
2422.000000	97.457283
2421.000000	97.469222
2420.000000	97.481632
2419.000000	97.487168
2418.000000	97.482356
2417.000000	97.471904
2416.000000	97.464944
2415.000000	97.466439
2414.000000	97.474170
2413.000000	97.483499
2412.000000	97.491137
2411.000000	97.494255
2410.000000	97.490820
2409.000000	97.483487
2408.000000	97.479606
2407.000000	97.484273
2406.000000	97.494764
2405.000000	97.503745
2404.000000	97.506563
2403.000000	97.503989
2402.000000	97.499436
2401.000000	97.495061
2400.000000	97.489877
2399.000000	97.481295
2398.000000	97.469470
2397.000000	97.459475
2396.000000	97.456954
2395.000000	97.461697
2394.000000	97.468101
2393.000000	97.472039
2392.000000	97.474698
2391.000000	97.479379
2390.000000	97.487424
2389.000000	97.498154
2388.000000	97.509906
2387.000000	97.519967
2386.000000	97.526166
2385.000000	97.529942
2384.000000	97.535870
2383.000000	97.546330
2382.000000	97.558230
2381.000000	97.566183
2380.000000	97.567611
2379.000000	97.564312
2378.000000	97.560608
2377.000000	97.560951
2376.000000	97.566969
2375.000000	97.575001
2374.000000	97.578372
2373.000000	97.574241
2372.000000	97.567324
2371.000000	97.565151
2370.000000	97.571278
2369.000000	97.584118
2368.000000	97.599304
2367.000000	97.610565
2366.000000	97.611843
2365.000000	97.603755
2364.000000	97.594604
2363.000000	97.591424
2362.000000	97.594621
2361.000000	97.601129
2360.000000	97.608715
2359.000000	97.615808
2358.000000	97.617558
2357.000000	97.613962
2356.000000	97.612033
2355.000000	97.613453
2354.000000	97.610726
2353.000000	97.600712
2352.000000	97.593746
2351.000000	97.597719
2350.000000	97.608658
2349.000000	97.617987
2348.000000	97.618968
2347.000000	97.612707
2346.000000	97.607370
2345.000000	97.609775
2344.000000	97.615431
2343.000000	97.615909
2342.000000	97.610467
2341.000000	97.603113
2340.000000	97.598881
2339.000000	97.598386
2338.000000	97.598628
2337.000000	97.597772
2336.000000	97.597915
2335.000000	97.599433
2334.000000	97.599537
2333.000000	97.596595
2332.000000	97.594679
2331.000000	97.595280
2330.000000	97.592776
2329.000000	97.580334
2328.000000	97.555401
2327.000000	97.523545
2326.000000	97.493064
2325.000000	97.474200
2324.000000	97.472806
2323.000000	97.486278
2322.000000	97.507864
2321.000000	97.532824
2320.000000	97.560360
2319.000000	97.585858
2318.000000	97.601490
2317.000000	97.603346
2316.000000	97.595914
2315.000000	97.587446
2314.000000	97.583155
2313.000000	97.584522
2312.000000	97.589674
2311.000000	97.594510
2310.000000	97.594179
2309.000000	97.587313
2308.000000	97.574850
2307.000000	97.558048
2306.000000	97.538785
2305.000000	97.522881
2304.000000	97.517205
2303.000000	97.522346
2302.000000	97.531601
2301.000000	97.537425
2300.000000	97.537011
2299.000000	97.531547
2298.000000	97.523797
2297.000000	97.516773
2296.000000	97.509921
2295.000000	97.498171
2294.000000	97.477888
2293.000000	97.455259
2292.000000	97.440714
2291.000000	97.435648
2290.000000	97.429995
2289.000000	97.416422
2288.000000	97.399340
2287.000000	97.387002
2286.000000	97.380922
2285.000000	97.378322
2284.000000	97.379511
2283.000000	97.386713
2282.000000	97.399096
2281.000000	97.413527
2280.000000	97.428516
2279.000000	97.443450
2278.000000	97.457690
2277.000000	97.472806
2276.000000	97.492145
2275.000000	97.514414
2274.000000	97.531937
2273.000000	97.539046
2272.000000	97.538021
2271.000000	97.534125
2270.000000	97.529785
2269.000000	97.527624
2268.000000	97.532837
2267.000000	97.546629
2266.000000	97.561558
2265.000000	97.568816
2264.000000	97.567205
2263.000000	97.561303
2262.000000	97.554470
2261.000000	97.547884
2260.000000	97.542507
2259.000000	97.538037
2258.000000	97.532853
2257.000000	97.527017
2256.000000	97.522772
2255.000000	97.521024
2254.000000	97.522051
2253.000000	97.528857
2252.000000	97.543133
2251.000000	97.557847
2250.000000	97.562429
2249.000000	97.557380
2248.000000	97.554049
2247.000000	97.558977
2246.000000	97.565744
2245.000000	97.567140
2244.000000	97.565011
2243.000000	97.563583
2242.000000	97.562169
2241.000000	97.560607
2240.000000	97.563906
2239.000000	97.575484
2238.000000	97.592321
2237.000000	97.611167
2236.000000	97.632291
2235.000000	97.652725
2234.000000	97.664539
2233.000000	97.665862
2232.000000	97.666943
2231.000000	97.678947
2230.000000	97.702118
2229.000000	97.727572
2228.000000	97.744595
2227.000000	97.745239
2226.000000	97.731550
2225.000000	97.720393
2224.000000	97.730205
2223.000000	97.759552
2222.000000	97.789299
2221.000000	97.807999
2220.000000	97.822689
2219.000000	97.842391
2218.000000	97.865892
2217.000000	97.891250
2216.000000	97.921469
2215.000000	97.954043
2214.000000	97.979753
2213.000000	97.999624
2212.000000	98.027689
2211.000000	98.067613
2210.000000	98.101633
2209.000000	98.112431
2208.000000	98.103472
2207.000000	98.088567
2206.000000	98.076263
2205.000000	98.073049
2204.000000	98.085495
2203.000000	98.107894
2202.000000	98.122867
2201.000000	98.124731
2200.000000	98.127868
2199.000000	98.141685
2198.000000	98.153234
2197.000000	98.146051
2196.000000	98.120802
2195.000000	98.086872
2194.000000	98.050293
2193.000000	98.022172
2192.000000	98.020058
2191.000000	98.045681
2190.000000	98.075685
2189.000000	98.087970
2188.000000	98.084439
2187.000000	98.077071
2186.000000	98.069991
2185.000000	98.067982
2184.000000	98.082701
2183.000000	98.112463
2182.000000	98.133846
2181.000000	98.130800
2180.000000	98.115932
2179.000000	98.107146
2178.000000	98.102803
2177.000000	98.094037
2176.000000	98.083042
2175.000000	98.072540
2174.000000	98.054077
2173.000000	98.022579
2172.000000	97.986831
2171.000000	97.954245
2170.000000	97.922282
2169.000000	97.894434
2168.000000	97.883517
2167.000000	97.887525
2166.000000	97.884250
2165.000000	97.866902
2164.000000	97.862454
2163.000000	97.898690
2162.000000	97.977284
2161.000000	98.093892
2160.000000	98.247897
2159.000000	98.403528
2158.000000	98.488016
2157.000000	98.468860
2156.000000	98.390138
2155.000000	98.310241
2154.000000	98.249447
2153.000000	98.205542
2152.000000	98.180165
2151.000000	98.167156
2150.000000	98.142508
2149.000000	98.090778
2148.000000	98.028141
2147.000000	97.981537
2146.000000	97.959194
2145.000000	97.952588
2144.000000	97.949964
2143.000000	97.936313
2142.000000	97.897162
2141.000000	97.836543
2140.000000	97.779305
2139.000000	97.746062
2138.000000	97.736760
2137.000000	97.742172
2136.000000	97.755070
2135.000000	97.763680
2134.000000	97.752235
2133.000000	97.718952
2132.000000	97.680398
2131.000000	97.650743
2130.000000	97.628307
2129.000000	97.606451
2128.000000	97.584959
2127.000000	97.564773
2126.000000	97.542907
2125.000000	97.519405
2124.000000	97.500318
2123.000000	97.488331
2122.000000	97.479356
2121.000000	97.472390
2120.000000	97.472245
2119.000000	97.477345
2118.000000	97.475432
2117.000000	97.458687
2116.000000	97.433889
2115.000000	97.411433
2114.000000	97.392883
2113.000000	97.375795
2112.000000	97.361094
2111.000000	97.348189
2110.000000	97.331189
2109.000000	97.307495
2108.000000	97.283051
2107.000000	97.263652
2106.000000	97.249243
2105.000000	97.240491
2104.000000	97.239864
2103.000000	97.240587
2102.000000	97.226815
2101.000000	97.193350
2100.000000	97.156385
2099.000000	97.137158
2098.000000	97.143667
2097.000000	97.172051
2096.000000	97.213021
2095.000000	97.250448
2094.000000	97.267355
2093.000000	97.263465
2092.000000	97.257319
2091.000000	97.263390
2090.000000	97.276985
2089.000000	97.288360
2088.000000	97.299636
2087.000000	97.317926
2086.000000	97.342194
2085.000000	97.367836
2084.000000	97.395175
2083.000000	97.422859
2082.000000	97.441663
2081.000000	97.445946
2080.000000	97.443393
2079.000000	97.442736
2078.000000	97.441243
2077.000000	97.434804
2076.000000	97.430163
2075.000000	97.433906
2074.000000	97.438553
2073.000000	97.433537
2072.000000	97.423457
2071.000000	97.422054
2070.000000	97.433630
2069.000000	97.451114
2068.000000	97.465847
2067.000000	97.470389
2066.000000	97.460391
2065.000000	97.443829
2064.000000	97.438535
2063.000000	97.450657
2062.000000	97.465866
2061.000000	97.469638
2060.000000	97.464354
2059.000000	97.459028
2058.000000	97.456452
2057.000000	97.459864
2056.000000	97.475042
2055.000000	97.492788
2054.000000	97.487130
2053.000000	97.448430
2052.000000	97.403613
2051.000000	97.386213
2050.000000	97.399192
2049.000000	97.423224
2048.000000	97.450274
2047.000000	97.485021
2046.000000	97.524860
2045.000000	97.565866
2044.000000	97.615866
2043.000000	97.675562
2042.000000	97.719540
2041.000000	97.723087
2040.000000	97.696308
2039.000000	97.665557
2038.000000	97.637094
2037.000000	97.607445
2036.000000	97.591049
2035.000000	97.604644
2034.000000	97.636747
2033.000000	97.663606
2032.000000	97.682965
2031.000000	97.702310
2030.000000	97.712057
2029.000000	97.702553
2028.000000	97.691634
2027.000000	97.703280
2026.000000	97.732658
2025.000000	97.757006
2024.000000	97.766147
2023.000000	97.759062
2022.000000	97.730981
2021.000000	97.691186
2020.000000	97.672450
2019.000000	97.694465
2018.000000	97.734290
2017.000000	97.754897
2016.000000	97.747166
2015.000000	97.722568
2014.000000	97.687061
2013.000000	97.647894
2012.000000	97.622704
2011.000000	97.617098
2010.000000	97.614133
2009.000000	97.605803
2008.000000	97.610748
2007.000000	97.637939
2006.000000	97.659729
2005.000000	97.646748
2004.000000	97.603907
2003.000000	97.550142
2002.000000	97.490732
2001.000000	97.428760
2000.000000	97.378066
1999.000000	97.344594
1998.000000	97.315918
1997.000000	97.287464
1996.000000	97.278630
1995.000000	97.304228
1994.000000	97.350979
1993.000000	97.400567
1992.000000	97.455610
1991.000000	97.518231
1990.000000	97.565692
1989.000000	97.575666
1988.000000	97.556568
1987.000000	97.529174
1986.000000	97.497402
1985.000000	97.461156
1984.000000	97.435457
1983.000000	97.427064
1982.000000	97.410185
1981.000000	97.356165
1980.000000	97.275219
1979.000000	97.199610
1978.000000	97.139185
1977.000000	97.087471
1976.000000	97.052771
1975.000000	97.042711
1974.000000	97.039517
1973.000000	97.025570
1972.000000	97.013634
1971.000000	97.022517
1970.000000	97.045033
1969.000000	97.066283
1968.000000	97.091019
1967.000000	97.125716
1966.000000	97.155634
1965.000000	97.168955
1964.000000	97.181478
1963.000000	97.212033
1962.000000	97.255547
1961.000000	97.300134
1960.000000	97.348585
1959.000000	97.401203
1958.000000	97.441400
1957.000000	97.460577
1956.000000	97.474670
1955.000000	97.496337
1954.000000	97.513484
1953.000000	97.514694
1952.000000	97.511125
1951.000000	97.512465
1950.000000	97.506949
1949.000000	97.487494
1948.000000	97.474741
1947.000000	97.489803
1946.000000	97.522755
1945.000000	97.551007
1944.000000	97.572713
1943.000000	97.599078
1942.000000	97.628638
1941.000000	97.655071
1940.000000	97.685999
1939.000000	97.727470
1938.000000	97.765358
1937.000000	97.784470
1936.000000	97.793310
1935.000000	97.807740
1934.000000	97.823931
1933.000000	97.830007
1932.000000	97.830780
1931.000000	97.839044
1930.000000	97.854120
1929.000000	97.866430
1928.000000	97.875494
1927.000000	97.887556
1926.000000	97.901292
1925.000000	97.909504
1924.000000	97.908435
1923.000000	97.896675
1922.000000	97.873981
1921.000000	97.848911
1920.000000	97.837387
1919.000000	97.844328
1918.000000	97.854136
1917.000000	97.850549
1916.000000	97.838038
1915.000000	97.830071
1914.000000	97.829816
1913.000000	97.833571
1912.000000	97.840245
1911.000000	97.848043
1910.000000	97.851456
1909.000000	97.850328
1908.000000	97.853150
1907.000000	97.863381
1906.000000	97.872183
1905.000000	97.872035
1904.000000	97.868071
1903.000000	97.869396
1902.000000	97.878197
1901.000000	97.893228
1900.000000	97.915454
1899.000000	97.941703
1898.000000	97.961692
1897.000000	97.971061
1896.000000	97.977281
1895.000000	97.985217
1894.000000	97.988781
1893.000000	97.984976
1892.000000	97.982737
1891.000000	97.988032
1890.000000	97.991602
1889.000000	97.982645
1888.000000	97.965026
1887.000000	97.948195
1886.000000	97.932654
1885.000000	97.916772
1884.000000	97.906492
1883.000000	97.906091
1882.000000	97.907925
1881.000000	97.901688
1880.000000	97.888793
1879.000000	97.877324
1878.000000	97.869178
1877.000000	97.862405
1876.000000	97.858367
1875.000000	97.857056
1874.000000	97.853460
1873.000000	97.846362
1872.000000	97.843036
1871.000000	97.847873
1870.000000	97.854234
1869.000000	97.856056
1868.000000	97.857735
1867.000000	97.862754
1866.000000	97.867028
1865.000000	97.866778
1864.000000	97.865668
1863.000000	97.868393
1862.000000	97.872282
1861.000000	97.872921
1860.000000	97.872606
1859.000000	97.875710
1858.000000	97.881306
1857.000000	97.885526
1856.000000	97.886678
1855.000000	97.883238
1854.000000	97.872770
1853.000000	97.859517
1852.000000	97.855597
1851.000000	97.866075
1850.000000	97.879252
1849.000000	97.880189
1848.000000	97.868466
1847.000000	97.853425
1846.000000	97.839252
1845.000000	97.824384
1844.000000	97.810002
1843.000000	97.798016
1842.000000	97.785226
1841.000000	97.768732
1840.000000	97.753137
1839.000000	97.743453
1838.000000	97.736043
1837.000000	97.725986
1836.000000	97.718184
1835.000000	97.720383
1834.000000	97.731096
1833.000000	97.744704
1832.000000	97.762376
1831.000000	97.784638
1830.000000	97.800769
1829.000000	97.802557
1828.000000	97.798868
1827.000000	97.800224
1826.000000	97.801514
1825.000000	97.794493
1824.000000	97.784007
1823.000000	97.779103
1822.000000	97.780942
1821.000000	97.787669
1820.000000	97.800562
1819.000000	97.816714
1818.000000	97.826043
1817.000000	97.823490
1816.000000	97.814807
1815.000000	97.805406
1814.000000	97.793024
1813.000000	97.776916
1812.000000	97.763836
1811.000000	97.756166
1810.000000	97.748627
1809.000000	97.741064
1808.000000	97.738176
1807.000000	97.738321
1806.000000	97.734335
1805.000000	97.723858
1804.000000	97.711168
1803.000000	97.697511
1802.000000	97.678586
1801.000000	97.655366
1800.000000	97.633879
1799.000000	97.613980
1798.000000	97.594312
1797.000000	97.579092
1796.000000	97.572713
1795.000000	97.571262
1794.000000	97.566395
1793.000000	97.560067
1792.000000	97.567733
1791.000000	97.590319
1790.000000	97.610653
1789.000000	97.619869
1788.000000	97.622231
1787.000000	97.622702
1786.000000	97.620330
1785.000000	97.614393
1784.000000	97.608612
1783.000000	97.605412
1782.000000	97.600293
1781.000000	97.589505
1780.000000	97.577880
1779.000000	97.569809
1778.000000	97.563461
1777.000000	97.555668
1776.000000	97.549486
1775.000000	97.550328
1774.000000	97.556610
1773.000000	97.559527
1772.000000	97.558384
1771.000000	97.555872
1770.000000	97.547109
1769.000000	97.530735
1768.000000	97.516672
1767.000000	97.513110
1766.000000	97.514763
1765.000000	97.513847
1764.000000	97.509749
1763.000000	97.502556
1762.000000	97.485488
1761.000000	97.457108
1760.000000	97.431118
1759.000000	97.416499
1758.000000	97.405179
1757.000000	97.385168
1756.000000	97.358601
1755.000000	97.333884
1754.000000	97.307581
1753.000000	97.271715
1752.000000	97.234635
1751.000000	97.218706
1750.000000	97.226421
1749.000000	97.237296
1748.000000	97.243069
1747.000000	97.248844
1746.000000	97.254036
1745.000000	97.255121
1744.000000	97.257012
1743.000000	97.264320
1742.000000	97.267281
1741.000000	97.255163
1740.000000	97.233930
1739.000000	97.217046
1738.000000	97.202259
1737.000000	97.177915
1736.000000	97.139426
1735.000000	97.088733
1734.000000	97.038933
1733.000000	97.005804
1732.000000	96.989998
1731.000000	96.979627
1730.000000	96.961146
1729.000000	96.929959
1728.000000	96.896892
1727.000000	96.873784
1726.000000	96.859067
1725.000000	96.846569
1724.000000	96.841034
1723.000000	96.851647
1722.000000	96.877661
1721.000000	96.912885
1720.000000	96.954764
1719.000000	96.995020
1718.000000	97.013365
1717.000000	97.017619
1716.000000	97.032458
1715.000000	97.059106
1714.000000	97.086422
1713.000000	97.113021
1712.000000	97.147343
1711.000000	97.194479
1710.000000	97.246071
1709.000000	97.292888
1708.000000	97.338066
1707.000000	97.387231
1706.000000	97.433647
1705.000000	97.465244
1704.000000	97.480258
1703.000000	97.483738
1702.000000	97.482493
1701.000000	97.481724
1700.000000	97.488950
1699.000000	97.497957
1698.000000	97.505889
1697.000000	97.514585
1696.000000	97.529152
1695.000000	97.540374
1694.000000	97.545281
1693.000000	97.550512
1692.000000	97.557634
1691.000000	97.566316
1690.000000	97.571802
1689.000000	97.571278
1688.000000	97.572385
1687.000000	97.583157
1686.000000	97.606384
1685.000000	97.627034
1684.000000	97.628469
1683.000000	97.608359
1682.000000	97.585399
1681.000000	97.566501
1680.000000	97.557021
1679.000000	97.557080
1678.000000	97.559390
1677.000000	97.553923
1676.000000	97.539033
1675.000000	97.521714
1674.000000	97.504211
1673.000000	97.485990
1672.000000	97.469205
1671.000000	97.454746
1670.000000	97.430527
1669.000000	97.383238
1668.000000	97.325992
1667.000000	97.279899
1666.000000	97.240139
1665.000000	97.189499
1664.000000	97.115687
1663.000000	97.014729
1662.000000	96.889592
1661.000000	96.744669
1660.000000	96.579414
1659.000000	96.391181
1658.000000	96.180240
1657.000000	95.957013
1656.000000	95.718444
1655.000000	95.417701
1654.000000	94.933864
1653.000000	94.375894
1652.000000	94.095637
1651.000000	94.111590
1650.000000	94.254525
1649.000000	94.454422
1648.000000	94.702620
1647.000000	94.993827
1646.000000	95.261188
1645.000000	95.459780
1644.000000	95.616949
1643.000000	95.761037
1642.000000	95.900094
1641.000000	96.032059
1640.000000	96.153657
1639.000000	96.264490
1638.000000	96.366669
1637.000000	96.465664
1636.000000	96.562970
1635.000000	96.646945
1634.000000	96.702540
1633.000000	96.737423
1632.000000	96.760959
1631.000000	96.782789
1630.000000	96.805351
1629.000000	96.820952
1628.000000	96.824415
1627.000000	96.821551
1626.000000	96.812930
1625.000000	96.786940
1624.000000	96.736450
1623.000000	96.675054
1622.000000	96.619311
1621.000000	96.566265
1620.000000	96.505577
1619.000000	96.426856
1618.000000	96.311432
1617.000000	96.142883
1616.000000	95.954573
1615.000000	95.804182
1614.000000	95.699764
1613.000000	95.617114
1612.000000	95.551969
1611.000000	95.524513
1610.000000	95.546004
1609.000000	95.599207
1608.000000	95.663873
1607.000000	95.737031
1606.000000	95.815398
1605.000000	95.885110
1604.000000	95.939857
1603.000000	95.987545
1602.000000	96.030685
1601.000000	96.057088
1600.000000	96.060771
1599.000000	96.051883
1598.000000	96.038558
1597.000000	96.016596
1596.000000	95.984091
1595.000000	95.952358
1594.000000	95.932985
1593.000000	95.925624
1592.000000	95.929885
1591.000000	95.955004
1590.000000	96.005760
1589.000000	96.072709
1588.000000	96.147381
1587.000000	96.232991
1586.000000	96.330693
1585.000000	96.430335
1584.000000	96.524362
1583.000000	96.615598
1582.000000	96.704817
1581.000000	96.782158
1580.000000	96.842044
1579.000000	96.891331
1578.000000	96.939669
1577.000000	96.986328
1576.000000	97.027819
1575.000000	97.068723
1574.000000	97.109221
1573.000000	97.139397
1572.000000	97.159533
1571.000000	97.181686
1570.000000	97.209513
1569.000000	97.229659
1568.000000	97.238256
1567.000000	97.251025
1566.000000	97.269844
1565.000000	97.284929
1564.000000	97.293259
1563.000000	97.301063
1562.000000	97.311518
1561.000000	97.317863
1560.000000	97.313615
1559.000000	97.320422
1558.000000	97.348104
1557.000000	97.349420
1556.000000	97.345108
1555.000000	97.350762
1554.000000	97.358756
1553.000000	97.360742
1552.000000	97.361892
1551.000000	97.369526
1550.000000	97.378813
1549.000000	97.377311
1548.000000	97.366781
1547.000000	97.359118
1546.000000	97.356334
1545.000000	97.354055
1544.000000	97.357565
1543.000000	97.370654
1542.000000	97.381094
1541.000000	97.380402
1540.000000	97.389692
1539.000000	97.412496
1538.000000	97.429538
1537.000000	97.438243
1536.000000	97.443938
1535.000000	97.457225
1534.000000	97.478833
1533.000000	97.498297
1532.000000	97.508073
1531.000000	97.512480
1530.000000	97.511533
1529.000000	97.502293
1528.000000	97.490678
1527.000000	97.488479
1526.000000	97.492903
1525.000000	97.493612
1524.000000	97.491564
1523.000000	97.493173
1522.000000	97.494644
1521.000000	97.493943
1520.000000	97.496030
1519.000000	97.502467
1518.000000	97.495691
1517.000000	97.467891
1516.000000	97.442713
1515.000000	97.435697
1514.000000	97.430680
1513.000000	97.412548
1512.000000	97.393267
1511.000000	97.386944
1510.000000	97.377881
1509.000000	97.337776
1508.000000	97.285436
1507.000000	97.276908
1506.000000	97.270882
1505.000000	97.209647
1504.000000	97.139018
1503.000000	97.060257
1502.000000	96.927224
1501.000000	96.685163
1500.000000	96.303922
1499.000000	95.771563
1498.000000	95.093646
1497.000000	94.392223
1496.000000	93.916418
1495.000000	93.776022
1494.000000	93.862732
1493.000000	94.059461
1492.000000	94.347090
1491.000000	94.735911
1490.000000	95.155679
1489.000000	95.480559
1488.000000	95.662779
1487.000000	95.712280
1486.000000	95.622213
1485.000000	95.384858
1484.000000	95.008885
1483.000000	94.470597
1482.000000	93.708510
1481.000000	92.733224
1480.000000	91.653229
1479.000000	90.533973
1478.000000	89.364797
1477.000000	88.216355
1476.000000	87.302103
1475.000000	86.792123
1474.000000	86.710582
1473.000000	87.004053
1472.000000	87.506924
1471.000000	87.962173
1470.000000	88.225285
1469.000000	88.266079
1468.000000	88.100051
1467.000000	87.821071
1466.000000	87.671374
1465.000000	87.954678
1464.000000	88.679489
1463.000000	89.500744
1462.000000	90.127794
1461.000000	90.481515
1460.000000	90.566917
1459.000000	90.365971
1458.000000	89.841404
1457.000000	89.178608
1456.000000	88.806251
1455.000000	88.890345
1454.000000	89.351612
1453.000000	90.099855
1452.000000	90.996045
1451.000000	91.837520
1450.000000	92.470295
1449.000000	92.835100
1448.000000	92.925751
1447.000000	92.811239
1446.000000	92.653246
1445.000000	92.621651
1444.000000	92.813215
1443.000000	93.226449
1442.000000	93.765183
1441.000000	94.286971
1440.000000	94.679476
1439.000000	94.894980
1438.000000	94.922316
1437.000000	94.766227
1436.000000	94.488523
1435.000000	94.188724
1434.000000	93.928350
1433.000000	93.756928
1432.000000	93.754775
1431.000000	93.990727
1430.000000	94.432881
1429.000000	94.945106
1428.000000	95.392510
1427.000000	95.727581
1426.000000	95.974372
1425.000000	96.162653
1424.000000	96.300652
1423.000000	96.392967
1422.000000	96.453866
1421.000000	96.492741
1420.000000	96.500739
1419.000000	96.469731
1418.000000	96.409282
1417.000000	96.329353
1416.000000	96.233675
1415.000000	96.132906
1414.000000	96.048445
1413.000000	95.999091
1412.000000	95.998240
1411.000000	96.055572
1410.000000	96.164471
1409.000000	96.298661
1408.000000	96.430548
1407.000000	96.546403
1406.000000	96.644852
1405.000000	96.724098
1404.000000	96.781016
1403.000000	96.819833
1402.000000	96.848610
1401.000000	96.866044
1400.000000	96.862424
1399.000000	96.840135
1398.000000	96.813288
1397.000000	96.784994
1396.000000	96.747389
1395.000000	96.703275
1394.000000	96.663019
1393.000000	96.624566
1392.000000	96.579734
1391.000000	96.520814
1390.000000	96.433213
1389.000000	96.286043
1388.000000	96.059562
1387.000000	95.802835
1386.000000	95.614267
1385.000000	95.540297
1384.000000	95.545857
1383.000000	95.551442
1382.000000	95.469673
1381.000000	95.248535
1380.000000	94.917428
1379.000000	94.597328
1378.000000	94.435501
1377.000000	94.506599
1376.000000	94.784279
1375.000000	95.175380
1374.000000	95.553349
1373.000000	95.816081
1372.000000	95.941582
1371.000000	95.961202
1370.000000	95.902496
1369.000000	95.773924
1368.000000	95.589407
1367.000000	95.380821
1366.000000	95.176214
1365.000000	94.969661
1364.000000	94.712641
1363.000000	94.333813
1362.000000	93.761503
1361.000000	92.920938
1360.000000	91.723892
1359.000000	90.105661
1358.000000	88.104522
1357.000000	85.896611
1356.000000	83.739166
1355.000000	81.855622
1354.000000	80.335973
1353.000000	79.123133
1352.000000	78.109331
1351.000000	77.252399
1350.000000	76.617670
1349.000000	76.327755
1348.000000	76.481681
1347.000000	77.133058
1346.000000	78.312897
1345.000000	80.031097
1344.000000	82.230890
1343.000000	84.728726
1342.000000	87.224071
1341.000000	89.370127
1340.000000	90.870468
1339.000000	91.573415
1338.000000	91.482552
1337.000000	90.703755
1336.000000	89.482576
1335.000000	88.271402
1334.000000	87.609605
1333.000000	87.834610
1332.000000	88.888409
1331.000000	90.386492
1330.000000	91.874071
1329.000000	93.071868
1328.000000	93.930094
1327.000000	94.522527
1326.000000	94.934841
1325.000000	95.223225
1324.000000	95.426279
1323.000000	95.576665
1322.000000	95.693959
1321.000000	95.782049
1320.000000	95.844836
1319.000000	95.891440
1318.000000	95.926560
1317.000000	95.946436
1316.000000	95.949473
1315.000000	95.941826
1314.000000	95.926718
1313.000000	95.899178
1312.000000	95.854930
1311.000000	95.793934
1310.000000	95.711552
1309.000000	95.595044
1308.000000	95.434559
1307.000000	95.226675
1306.000000	94.958872
1305.000000	94.601079
1304.000000	94.112482
1303.000000	93.446434
1302.000000	92.549489
1301.000000	91.385198
1300.000000	90.003231
1299.000000	88.590222
1298.000000	87.430711
1297.000000	86.786998
1296.000000	86.773812
1295.000000	87.288612
1294.000000	88.056377
1293.000000	88.770717
1292.000000	89.222003
1291.000000	89.333642
1290.000000	89.125150
1289.000000	88.683327
1288.000000	88.154216
1287.000000	87.706131
1286.000000	87.453681
1285.000000	87.413301
1284.000000	87.518790
1283.000000	87.659791
1282.000000	87.737918
1281.000000	87.751518
1280.000000	87.830005
1279.000000	88.145152
1278.000000	88.763292
1277.000000	89.588748
1276.000000	90.450445
1275.000000	91.209768
1274.000000	91.797563
1273.000000	92.203471
1272.000000	92.465151
1271.000000	92.649304
1270.000000	92.809602
1269.000000	92.952328
1268.000000	93.037569
1267.000000	93.008135
1266.000000	92.798232
1265.000000	92.335309
1264.000000	91.561573
1263.000000	90.484338
1262.000000	89.243610
1261.000000	88.131308
1260.000000	87.489022
1259.000000	87.496559
1258.000000	88.021961
1257.000000	88.698770
1256.000000	89.134761
1255.000000	89.055682
1254.000000	88.360181
1253.000000	87.154419
1252.000000	85.741898
1251.000000	84.479168
1250.000000	83.560695
1249.000000	82.964669
1248.000000	82.640238
1247.000000	82.672050
1246.000000	83.197185
1245.000000	84.199511
1244.000000	85.431284
1243.000000	86.539082
1242.000000	87.242560
1241.000000	87.438780
1240.000000	87.211589
1239.000000	86.776963
1238.000000	86.382842
1237.000000	86.212197
1236.000000	86.353695
1235.000000	86.825487
1234.000000	87.588943
1233.000000	88.536023
1232.000000	89.491415
1231.000000	90.271838
1230.000000	90.795774
1229.000000	91.146850
1228.000000	91.510817
1227.000000	92.020129
1226.000000	92.649563
1225.000000	93.254644
1224.000000	93.702476
1223.000000	93.950745
1222.000000	94.037174
1221.000000	94.040571
1220.000000	94.054504
1219.000000	94.156105
1218.000000	94.363075
1217.000000	94.628108
1216.000000	94.887817
1215.000000	95.107348
1214.000000	95.279691
1213.000000	95.405886
1212.000000	95.492328
1211.000000	95.553325
1210.000000	95.599262
1209.000000	95.629976
1208.000000	95.646890
1207.000000	95.660535
1206.000000	95.678345
1205.000000	95.694523
1204.000000	95.701682
1203.000000	95.701779
1202.000000	95.698688
1201.000000	95.691449
1200.000000	95.681849
1199.000000	95.677306
1198.000000	95.678864
1197.000000	95.677845
1196.000000	95.670697
1195.000000	95.664279
1194.000000	95.660769
1193.000000	95.651057
1192.000000	95.630179
1191.000000	95.605775
1190.000000	95.583492
1189.000000	95.557638
1188.000000	95.523872
1187.000000	95.487187
1186.000000	95.449944
1185.000000	95.405636
1184.000000	95.352368
1183.000000	95.298522
1182.000000	95.246747
1181.000000	95.186594
1180.000000	95.110773
1179.000000	95.024894
1178.000000	94.933196
1177.000000	94.828831
1176.000000	94.707907
1175.000000	94.577981
1174.000000	94.442908
1173.000000	94.293290
1172.000000	94.118971
1171.000000	93.918190
1170.000000	93.685078
1169.000000	93.400174
1168.000000	93.044406
1167.000000	92.602100
1166.000000	92.045617
1165.000000	91.331526
1164.000000	90.423737
1163.000000	89.324684
1162.000000	88.079168
1161.000000	86.769591
1160.000000	85.499759
1159.000000	84.342274
1158.000000	83.285041
1157.000000	82.259692
1156.000000	81.247711
1155.000000	80.335742
1154.000000	79.664793
1153.000000	79.332188
1152.000000	79.345090
1151.000000	79.607178
1150.000000	79.928939
1149.000000	80.095381
1148.000000	79.960110
1147.000000	79.491130
1146.000000	78.753551
1145.000000	77.885184
1144.000000	77.069923
1143.000000	76.461271
1142.000000	76.077099
1141.000000	75.782413
1140.000000	75.393125
1139.000000	74.781202
1138.000000	73.913233
1137.000000	72.851918
1136.000000	71.737338
1135.000000	70.707762
1134.000000	69.790262
1133.000000	68.893450
1132.000000	67.921452
1131.000000	66.872828
1130.000000	65.831198
1129.000000	64.918482
1128.000000	64.263746
1127.000000	63.952986
1126.000000	63.965789
1125.000000	64.176076
1124.000000	64.432745
1123.000000	64.613292
1122.000000	64.622502
1121.000000	64.403258
1120.000000	63.963712
1119.000000	63.345788
1118.000000	62.547756
1117.000000	61.516124
1116.000000	60.199553
1115.000000	58.584348
1114.000000	56.657143
1113.000000	54.395512
1112.000000	51.819356
1111.000000	48.988715
1110.000000	45.958282
1109.000000	42.783049
1108.000000	39.598554
1107.000000	36.621259
1106.000000	34.044395
1105.000000	31.973681
1104.000000	30.468133
1103.000000	29.558215
1102.000000	29.183437
1101.000000	29.233175
1100.000000	29.649130
1099.000000	30.438252
1098.000000	31.592917
1097.000000	33.052481
1096.000000	34.764071
1095.000000	36.669611
1094.000000	38.638620
1093.000000	40.499073
1092.000000	42.149138
1091.000000	43.596770
1090.000000	44.899338
1089.000000	46.130958
1088.000000	47.391737
1087.000000	48.765811
1086.000000	50.249354
1085.000000	51.776666
1084.000000	53.314905
1083.000000	54.869574
1082.000000	56.406322
1081.000000	57.827748
1080.000000	59.034068
1079.000000	59.968366
1078.000000	60.633410
1077.000000	61.147085
1076.000000	61.767568
1075.000000	62.760977
1074.000000	64.196865
1073.000000	65.914424
1072.000000	67.685430
1071.000000	69.355025
1070.000000	70.844344
1069.000000	72.116218
1068.000000	73.174403
1067.000000	74.042301
1066.000000	74.701686
1065.000000	75.062503
1064.000000	75.016403
1063.000000	74.475171
1062.000000	73.408898
1061.000000	71.925776
1060.000000	70.355282
1059.000000	69.176138
1058.000000	68.780753
1057.000000	69.284906
1056.000000	70.538609
1055.000000	72.253785
1054.000000	74.106153
1053.000000	75.830788
1052.000000	77.288011
1051.000000	78.445866
1050.000000	79.291565
1049.000000	79.783453
1048.000000	79.869056
1047.000000	79.508378
1046.000000	78.693080
1045.000000	77.509640
1044.000000	76.230327
1043.000000	75.272939
1042.000000	74.994914
1041.000000	75.501235
1040.000000	76.640782
1039.000000	78.124959
1038.000000	79.659611
1037.000000	81.047321
1036.000000	82.224732
1035.000000	83.222067
1034.000000	84.074546
1033.000000	84.790557
1032.000000	85.384118
1031.000000	85.894661
1030.000000	86.351554
1029.000000	86.757661
1028.000000	87.118831
1027.000000	87.457342
1026.000000	87.785184
1025.000000	88.090795
1024.000000	88.369162
1023.000000	88.634555
1022.000000	88.889934
1021.000000	89.116963
1020.000000	89.309224
1019.000000	89.486965
1018.000000	89.662769
1017.000000	89.821420
1016.000000	89.949552
1015.000000	90.056086
1014.000000	90.148883
1013.000000	90.219715
1012.000000	90.265759
1011.000000	90.298854
1010.000000	90.317072
1009.000000	90.294644
1008.000000	90.216478
1007.000000	90.092442
1006.000000	89.926711
1005.000000	89.697727
1004.000000	89.382050
1003.000000	88.971757
1002.000000	88.445497
1001.000000	87.755410
1000.000000	86.854506
999.000000	85.710626
998.000000	84.293284
997.000000	82.582098
996.000000	80.635277
995.000000	78.631139
994.000000	76.830938
993.000000	75.502706
992.000000	74.866039
991.000000	75.016525
990.000000	75.856048
989.000000	77.142096
988.000000	78.618032
987.000000	80.112824
986.000000	81.530808
985.000000	82.816921
984.000000	83.954948
983.000000	84.953950
982.000000	85.809728
981.000000	86.494221
980.000000	86.994386
979.000000	87.319713
978.000000	87.469246
977.000000	87.408207
976.000000	87.089399
975.000000	86.469415
974.000000	85.460671
973.000000	83.916392
972.000000	81.672923
971.000000	78.611336
970.000000	74.709627
969.000000	70.091653
968.000000	65.105365
967.000000	60.309805
966.000000	56.325553
965.000000	53.637633
964.000000	52.499838
963.000000	52.895890
962.000000	54.563248
961.000000	57.127628
960.000000	60.219836
959.000000	63.505638
958.000000	66.637573
957.000000	69.308383
956.000000	71.377137
955.000000	72.895217
954.000000	73.979710
953.000000	74.676672
952.000000	74.950438
951.000000	74.731421
950.000000	73.968276
949.000000	72.658840
948.000000	70.919819
947.000000	69.042582
946.000000	67.473864
945.000000	66.699685
944.000000	67.064284
943.000000	68.588254
942.000000	70.928897
941.000000	73.580938
940.000000	76.136012
939.000000	78.391707
938.000000	80.285289
937.000000	81.819202
936.000000	83.049406
935.000000	84.063844
934.000000	84.928201
933.000000	85.668824
932.000000	86.314536
931.000000	86.902426
930.000000	87.443337
929.000000	87.918231
928.000000	88.323196
927.000000	88.683067
926.000000	89.010756
925.000000	89.295005
924.000000	89.537703
923.000000	89.762028
922.000000	89.974947
921.000000	90.160553
920.000000	90.324619
919.000000	90.504393
918.000000	90.718287
917.000000	90.944388
916.000000	91.160510
915.000000	91.369058
914.000000	91.568764
913.000000	91.743065
912.000000	91.892316
911.000000	92.040558
910.000000	92.193578
909.000000	92.327719
908.000000	92.434430
907.000000	92.538946
906.000000	92.658170
905.000000	92.776002
904.000000	92.877755
903.000000	92.972295
902.000000	93.065453
901.000000	93.144613
900.000000	93.205537
899.000000	93.260633
898.000000	93.308191
897.000000	93.326595
896.000000	93.310575
895.000000	93.276223
894.000000	93.219806
893.000000	93.105449
892.000000	92.906283
891.000000	92.626373
890.000000	92.284121
889.000000	91.922494
888.000000	91.642473
887.000000	91.565924
886.000000	91.731531
885.000000	92.062839
884.000000	92.447101
883.000000	92.808312
882.000000	93.102413
881.000000	93.303663
880.000000	93.426822
879.000000	93.518462
878.000000	93.599150
877.000000	93.645063
876.000000	93.640055
875.000000	93.597284
874.000000	93.517617
873.000000	93.373330
872.000000	93.154367
871.000000	92.884158
870.000000	92.561215
869.000000	92.124390
868.000000	91.483856
867.000000	90.535200
866.000000	89.132991
865.000000	87.104483
864.000000	84.372508
863.000000	81.092594
862.000000	77.708985
861.000000	74.890861
860.000000	73.340831
859.000000	73.466488
858.000000	75.120535
857.000000	77.694328
856.000000	80.480789
855.000000	82.977412
854.000000	84.935138
853.000000	86.276737
852.000000	87.019108
851.000000	87.198980
850.000000	86.797103
849.000000	85.774268
848.000000	84.229095
847.000000	82.477760
846.000000	80.927469
845.000000	79.834413
844.000000	79.137823
843.000000	78.468901
842.000000	77.344738
841.000000	75.492188
840.000000	73.080951
839.000000	70.644686
838.000000	68.761658
837.000000	67.824618
836.000000	67.995363
835.000000	69.181187
834.000000	70.992464
833.000000	72.861704
832.000000	74.353582
831.000000	75.382295
830.000000	76.159204
829.000000	76.997993
828.000000	78.173840
827.000000	79.825197
826.000000	81.858161
825.000000	83.974259
824.000000	85.867505
823.000000	87.395972
822.000000	88.567939
821.000000	89.443257
820.000000	90.101501
819.000000	90.637623
818.000000	91.114038
817.000000	91.528325
816.000000	91.864433
815.000000	92.142594
814.000000	92.388113
813.000000	92.595144
812.000000	92.758368
811.000000	92.905573
810.000000	93.061142
809.000000	93.210541
808.000000	93.334707
807.000000	93.444703
806.000000	93.551339
805.000000	93.637071
804.000000	93.692166
803.000000	93.744789
802.000000	93.821874
801.000000	93.911134
800.000000	93.990867
799.000000	94.064067
798.000000	94.136519
797.000000	94.195225
796.000000	94.235519
795.000000	94.276583
794.000000	94.326770
793.000000	94.367945
792.000000	94.394321
791.000000	94.428640
790.000000	94.479554
789.000000	94.522793
788.000000	94.544875
787.000000	94.564392
786.000000	94.590805
785.000000	94.606956
784.000000	94.614318
783.000000	94.648409
782.000000	94.722619
781.000000	94.801050
780.000000	94.853801
779.000000	94.897305
778.000000	94.954878
777.000000	95.020942
776.000000	95.091435
775.000000	95.186086
774.000000	95.311639
773.000000	95.443887
772.000000	95.572608
771.000000	95.723506
770.000000	95.908335
769.000000	96.094210
768.000000	96.248626
767.000000	96.374501
766.000000	96.474332
765.000000	96.522595
764.000000	96.505201
763.000000	96.450587
762.000000	96.396798
761.000000	96.360853
760.000000	96.356044
759.000000	96.394495
758.000000	96.454625
757.000000	96.492346
756.000000	96.505934
755.000000	96.543087
754.000000	96.624386
753.000000	96.709841
752.000000	96.762293
751.000000	96.791090
750.000000	96.807334
749.000000	96.790532
748.000000	96.728671
747.000000	96.642448
746.000000	96.541144
745.000000	96.404681
744.000000	96.235144
743.000000	96.075695
742.000000	95.951021
741.000000	95.838307
740.000000	95.721606
739.000000	95.622464
738.000000	95.551838
737.000000	95.483613
736.000000	95.403865
735.000000	95.335283
734.000000	95.288795
733.000000	95.242614
732.000000	95.194691
731.000000	95.179456
730.000000	95.205018
729.000000	95.228399
728.000000	95.221555
727.000000	95.208253
726.000000	95.207054
725.000000	95.195921
724.000000	95.162982
723.000000	95.136340
722.000000	95.129130
721.000000	95.110168
720.000000	95.061221
719.000000	95.011611
718.000000	94.981393
717.000000	94.947170
716.000000	94.896911
715.000000	94.860373
714.000000	94.852212
713.000000	94.840141
712.000000	94.805369
711.000000	94.777259
710.000000	94.773883
709.000000	94.763108
708.000000	94.721592
707.000000	94.677313
706.000000	94.656632
705.000000	94.640041
704.000000	94.606461
703.000000	94.571371
702.000000	94.545644
701.000000	94.509824
700.000000	94.460349
699.000000	94.428069
698.000000	94.419217
697.000000	94.394326
696.000000	94.335574
695.000000	94.278760
694.000000	94.243650
693.000000	94.197679
692.000000	94.123311
691.000000	94.056659
690.000000	94.021329
689.000000	93.984401
688.000000	93.920094
687.000000	93.854795
686.000000	93.806975
685.000000	93.748130
684.000000	93.665061
683.000000	93.590753
682.000000	93.538103
681.000000	93.469322
680.000000	93.369325
679.000000	93.278853
678.000000	93.216685
677.000000	93.142749
676.000000	93.035165
675.000000	92.933151
674.000000	92.862350
673.000000	92.793354
672.000000	92.709229
671.000000	92.641023
670.000000	92.591875
669.000000	92.481654
668.000000	92.262809
667.000000	92.051209
666.000000	91.905006
665.000000	91.769949
664.000000	91.615541
663.000000	91.462036
662.000000	91.319967
661.000000	91.149974
660.000000	90.930193
659.000000	90.702531
658.000000	90.502684
657.000000	90.305562
656.000000	90.089031
655.000000	89.881760
654.000000	89.700713
653.000000	89.507945
652.000000	89.277225
651.000000	89.038069
650.000000	88.809656
649.000000	88.563291
648.000000	88.292690
647.000000	88.048473
646.000000	87.853791
645.000000	87.663877
644.000000	87.450953
643.000000	87.251588
642.000000	87.083540
641.000000	86.901401
640.000000	86.684969
639.000000	86.488212
638.000000	86.349568
637.000000	86.232129
636.000000	86.105347
635.000000	86.001606
634.000000	85.940876
633.000000	85.879732
632.000000	85.791516
631.000000	85.711309
630.000000	85.659978
629.000000	85.606946
628.000000	85.552638
627.000000	85.555238
626.000000	85.626465
625.000000	85.690841
624.000000	85.701388
623.000000	85.704789
622.000000	85.736472
621.000000	85.753371
620.000000	85.726055
619.000000	85.704388
618.000000	85.728627
617.000000	85.765865
616.000000	85.792155
615.000000	85.844645
614.000000	85.931164
613.000000	85.986351
612.000000	85.978100
611.000000	85.964883
610.000000	85.993205
609.000000	86.027858
608.000000	86.045418
607.000000	86.093855
606.000000	86.193006
605.000000	86.272536
604.000000	86.283487
603.000000	86.272389
602.000000	86.279571
601.000000	86.266649
600.000000	86.214453
599.000000	86.191302
598.000000	86.243348
597.000000	86.319626
596.000000	86.373572
595.000000	86.438888
594.000000	86.534315
593.000000	86.597191
592.000000	86.588507
591.000000	86.572699
590.000000	86.609185
589.000000	86.665663
588.000000	86.712680
587.000000	86.791050
586.000000	86.914818
585.000000	87.007172
584.000000	87.010140
583.000000	86.963432
582.000000	86.910150
581.000000	86.829867
580.000000	86.732714
579.000000	86.702141
578.000000	86.766171
577.000000	86.831857
576.000000	86.810132
575.000000	86.686074
574.000000	86.407097
573.000000	85.850616
572.000000	85.010586
571.000000	84.116870
570.000000	83.470836
569.000000	83.235394
568.000000	83.436720
567.000000	84.013334
566.000000	84.762126
565.000000	85.405821
564.000000	85.813911
563.000000	86.059100
562.000000	86.220722
561.000000	86.269121
560.000000	86.200633
559.000000	86.117717
558.000000	86.082284
557.000000	86.025304
556.000000	85.895681
555.000000	85.753777
554.000000	85.631282
553.000000	85.442752
552.000000	85.136103
551.000000	84.783798
550.000000	84.439489
549.000000	84.048023
548.000000	83.593731
547.000000	83.176257
546.000000	82.826013
545.000000	82.401159
544.000000	81.772467
543.000000	80.954726
542.000000	79.966740
541.000000	78.766935
540.000000	77.448726
539.000000	76.326464
538.000000	75.665487
537.000000	75.466319
536.000000	75.613625
535.000000	76.027265
534.000000	76.538917
533.000000	76.842985
532.000000	76.734250
531.000000	76.264802
530.000000	75.594746
529.000000	74.853800
528.000000	74.248412
527.000000	74.093554
526.000000	74.518399
525.000000	75.269275
524.000000	76.045102
523.000000	76.795204
522.000000	77.522463
521.000000	78.103629
520.000000	78.469281
519.000000	78.753937
518.000000	79.072313
517.000000	79.332315
516.000000	79.452142
515.000000	79.542043
514.000000	79.695091
513.000000	79.838675
512.000000	79.916648
511.000000	80.013361
510.000000	80.169085
509.000000	80.270701
508.000000	80.260253
507.000000	80.259716
506.000000	80.346556
505.000000	80.414503
504.000000	80.409681
503.000000	80.455846
502.000000	80.610528
501.000000	80.716354
500.000000	80.687302
499.000000	80.666010
498.000000	80.745031
497.000000	80.807190
496.000000	80.771289
495.000000	80.757310
494.000000	80.843075
493.000000	80.892130
492.000000	80.803236
491.000000	80.705298
490.000000	80.694693
489.000000	80.652031
488.000000	80.504819
487.000000	80.401399
486.000000	80.431537
485.000000	80.419635
484.000000	80.220689
483.000000	79.983686
482.000000	79.863087
481.000000	79.750727
480.000000	79.539849
479.000000	79.354562
478.000000	79.297391
477.000000	79.230364
476.000000	79.046434
475.000000	78.889654
474.000000	78.874725
473.000000	78.851270
472.000000	78.712428
471.000000	78.654092
470.000000	78.773235
469.000000	78.833942
468.000000	78.674707
467.000000	78.484695
466.000000	78.446935
465.000000	78.431808
464.000000	78.324839
463.000000	78.305387
462.000000	78.525542
461.000000	78.825675
460.000000	79.063809
459.000000	79.387889
458.000000	79.887560
457.000000	80.285955
456.000000	80.435515
455.000000	80.613271
454.000000	80.983605
453.000000	81.338079
452.000000	81.512207
451.000000	81.696294
450.000000	82.042211
449.000000	82.368256
448.000000	82.534586
447.000000	82.721071
446.000000	83.057952
445.000000	83.347175
444.000000	83.457026
443.000000	83.603712
442.000000	83.927770
441.000000	84.192250
440.000000	84.254771
439.000000	84.336061
438.000000	84.563875
437.000000	84.707084
436.000000	84.633186
435.000000	84.631823
434.000000	84.888230
433.000000	85.133839
432.000000	85.161162
431.000000	85.185406
430.000000	85.382878
429.000000	85.528283
428.000000	85.487869
427.000000	85.570278
426.000000	85.994449
425.000000	86.436032
424.000000	86.560054
423.000000	86.590511
422.000000	86.791544
421.000000	86.888729
420.000000	86.564053
419.000000	86.253089
418.000000	86.551619
417.000000	86.984090
416.000000	87.173122
415.000000	87.463323
414.000000	88.036278
413.000000	88.463881
412.000000	88.406189
411.000000	88.209255
410.000000	88.232144
409.000000	88.198567
408.000000	87.895355
407.000000	87.771223
406.000000	88.125438
405.000000	88.454427
404.000000	88.376644
403.000000	88.359211
402.000000	88.734694
401.000000	88.899570
400.000000	88.381366
